StartTime: 2018-11-17 10:22:35.946
Time(s)	ax(g)	ay(g)	az(g)	AngleX(deg)	AngleY(deg)	AngleZ(deg)	T(Â°) 
240.539	0.0112	0.0244	1.0332	-0.1648	2.8070	-1.3733	21.1900 
240.561	0.0098	0.0259	1.0298	-0.1813	2.8070	-1.3788	21.1900 
240.572	0.0093	0.0273	1.0283	-0.1978	2.8070	-1.3898	21.1900 
240.589	0.0088	0.0264	1.0332	-0.2197	2.8070	-1.4008	21.2000 
240.708	0.0083	0.0264	1.0356	-0.2417	2.8070	-1.4063	21.2000 
240.723	0.0063	0.0229	1.0352	-0.2692	2.8015	-1.4282	21.2000 
240.723	0.0020	0.0244	1.0327	-0.2911	2.8070	-1.4612	21.1900 
240.723	-0.0015	0.0303	1.0293	-0.3076	2.8125	-1.4996	21.1900 
240.723	0.0039	0.0332	1.0264	-0.3241	2.8125	-1.5491	21.1900 
240.723	0.0015	0.0298	1.0298	-0.3461	2.8070	-1.5985	21.1800 
240.730	-0.0020	0.0225	1.0366	-0.3680	2.7905	-1.6479	21.1900 
240.749	-0.0034	0.0181	1.0337	-0.3955	2.7686	-1.6919	21.1900 
240.769	0.0005	0.0283	1.0264	-0.4175	2.7411	-1.7413	21.1900 
240.791	0.0015	0.0254	1.0264	-0.4504	2.7081	-1.7963	21.1900 
240.814	0.0005	0.0063	1.0337	-0.4944	2.6697	-1.8457	21.1900 
240.912	-0.0029	0.0024	1.0327	-0.5438	2.6422	-1.8842	21.1800 
240.929	-0.0059	-0.0034	1.0342	-0.5933	2.6147	-1.9006	21.1900 
240.929	-0.0039	0.0005	1.0322	-0.6372	2.5873	-1.9171	21.1700 
240.929	0.0176	0.0068	1.0303	-0.6757	2.5378	-1.9281	21.1800 
240.929	0.0239	0.0127	1.0283	-0.6976	2.4884	-1.9446	21.1800 
240.945	0.0186	0.0103	1.0396	-0.7196	2.4500	-1.9556	21.1800 
240.951	0.0156	0.0122	1.0444	-0.7416	2.4280	-1.9611	21.1800 
240.967	0.0205	0.0195	1.0469	-0.7690	2.4170	-1.9775	21.1800 
240.989	0.0225	0.0264	1.0391	-0.7855	2.4115	-1.9940	21.1900 
241.012	0.0142	0.0366	1.0239	-0.8020	2.4115	-2.0160	21.1800 
241.127	0.0054	0.0327	1.0322	-0.8240	2.4170	-2.0490	21.1800 
241.137	0.0083	0.0386	1.0356	-0.8569	2.4445	-2.0874	21.1800 
241.137	0.0190	0.0435	1.0347	-0.8954	2.4719	-2.1204	21.1900 
241.138	0.0195	0.0479	1.0439	-0.9393	2.5049	-2.1588	21.1900 
241.138	0.0200	0.0522	1.0376	-1.0052	2.5433	-2.2083	21.1800 
241.138	0.0186	0.0547	1.0356	-1.0876	2.6038	-2.2797	21.1700 
241.146	0.0322	0.0425	1.0361	-1.1975	2.6697	-2.3566	21.1900 
241.166	0.0146	0.0220	1.0366	-1.3074	2.7631	-2.4390	21.1800 
241.186	-0.0010	0.0176	1.0366	-1.3953	2.8784	-2.5323	21.1800 
241.207	-0.0151	0.0220	1.0439	-1.4722	3.0103	-2.6202	21.2000 
241.227	-0.0093	0.0215	1.0396	-1.5491	3.1421	-2.6917	21.1900 
241.331	-0.0166	0.0229	1.0229	-1.6205	3.2684	-2.7631	21.1700 
241.343	-0.0220	0.0181	1.0142	-1.6864	3.3893	-2.8180	21.1900 
241.343	-0.0313	0.0107	1.0142	-1.7468	3.4991	-2.8839	21.1700 
241.343	-0.0352	0.0132	1.0171	-1.7908	3.6035	-2.9498	21.1900 
241.343	-0.0308	0.0098	1.0317	-1.8402	3.6914	-2.9938	21.1900 
241.349	-0.0303	0.0044	1.0444	-1.8951	3.7683	-3.0157	21.1900 
241.365	-0.0254	0.0249	1.0322	-1.9446	3.8397	-3.0212	21.2000 
241.386	-0.0244	0.0220	1.0254	-1.9940	3.9056	-3.0267	21.1800 
241.407	-0.0293	0.0093	1.0215	-2.0599	3.9661	-3.0322	21.2000 
241.430	-0.0303	0.0063	1.0166	-2.1204	4.0210	-3.0432	21.1900 
241.542	-0.0254	0.0020	1.0137	-2.1973	4.0649	-3.0377	21.1700 
241.558	-0.0205	0.0010	1.0166	-2.2742	4.1034	-3.0212	21.1800 
241.558	-0.0034	-0.0049	1.0322	-2.3730	4.1254	-2.9828	21.2000 
241.558	0.0044	-0.0024	1.0347	-2.4719	4.1364	-2.9279	21.1900 
241.558	0.0093	-0.0059	1.0420	-2.5598	4.1528	-2.8839	21.1900 
241.558	0.0039	-0.0039	1.0659	-2.6422	4.1858	-2.8455	21.2000 
241.567	0.0063	0.0210	1.0469	-2.7246	4.2242	-2.8235	21.1900 
241.585	0.0156	0.0244	1.0161	-2.8070	4.2737	-2.8015	21.1800 
241.605	0.0225	0.0195	0.9731	-2.8949	4.3121	-2.7795	21.1900 
241.625	0.0293	0.0049	0.9795	-3.0103	4.3396	-2.7466	21.1900 
241.740	0.0356	-0.0142	0.9966	-3.1531	4.3396	-2.7246	21.2000 
241.747	0.0435	-0.0405	1.0508	-3.3069	4.3066	-2.7246	21.1900 
241.747	0.0459	-0.0400	1.0884	-3.4662	4.2407	-2.7521	21.1700 
241.748	0.0459	-0.0210	1.1177	-3.5870	4.1528	-2.7795	21.1700 
241.748	0.0459	-0.0029	1.1118	-3.6694	4.0485	-2.8070	21.1900 
241.748	0.0474	0.0166	1.0630	-3.6859	3.9441	-2.8235	21.1900 
241.773	0.0415	0.0186	1.0215	-3.6584	3.8342	-2.8235	21.1600 
241.784	0.0396	0.0161	0.9902	-3.6090	3.7134	-2.8235	21.1700 
241.806	0.0474	0.0176	0.9834	-3.5431	3.5706	-2.8180	21.1800 
241.823	0.0610	0.0054	0.9863	-3.4827	3.4058	-2.8125	21.1800 
241.843	0.0645	0.0024	0.9780	-3.4442	3.2190	-2.8180	21.1900 
241.944	0.0669	0.0073	1.0000	-3.4332	3.0597	-2.8345	21.1900 
241.957	0.0757	0.0137	1.0137	-3.4497	2.8894	-2.8400	21.1900 
241.957	0.0913	0.0264	1.0308	-3.4827	2.7136	-2.8235	21.1800 
241.957	0.0957	0.0171	1.0347	-3.5156	2.5323	-2.7740	21.1800 
241.957	0.0972	-0.0332	1.0327	-3.5706	2.3511	-2.6971	21.1900 
241.963	0.0874	-0.0317	1.0444	-3.6145	2.2028	-2.6038	21.1900 
241.981	0.0996	-0.0127	1.0142	-3.6200	2.0764	-2.4719	21.1900 
242.001	0.1104	-0.0049	1.0171	-3.6090	1.9720	-2.3071	21.1900 
242.022	0.1152	0.0049	1.0391	-3.5870	1.8787	-2.1204	21.1800 
242.045	0.1230	0.0161	1.0371	-3.5431	1.8018	-1.9226	21.1800 
242.172	0.1235	0.0229	1.0347	-3.4882	1.7303	-1.7029	21.1900 
242.184	0.1260	0.0273	1.0508	-3.4387	1.6754	-1.4722	21.1900 
242.185	0.1416	0.0488	1.0947	-3.3948	1.6205	-1.2085	21.2000 
242.185	0.1558	0.0522	1.1128	-3.3563	1.5601	-0.9064	21.1900 
242.185	0.1611	0.0493	1.1206	-3.3398	1.5271	-0.5768	21.1900 
242.185	0.1602	0.0576	1.1196	-3.3289	1.5271	-0.2527	21.1800 
242.191	0.1611	0.0562	1.1079	-3.3289	1.5546	0.0549	21.2000 
242.205	0.1504	0.0459	1.1123	-3.3344	1.6040	0.3406	21.2000 
242.228	0.1372	0.0464	1.1191	-3.3344	1.6864	0.5878	21.1800 
242.330	0.1274	0.0508	1.1143	-3.3234	1.8018	0.7910	21.1900 
242.341	0.1084	0.0581	1.0464	-3.2629	1.9281	0.9778	21.1800 
242.341	0.0923	0.0313	1.0015	-3.1531	2.0435	1.1920	21.1700 
242.341	0.0425	-0.0313	0.9805	-2.9663	2.1149	1.4612	21.1900 
242.341	0.0127	-0.0747	0.9722	-2.7026	2.1039	1.7963	21.1800 
242.347	-0.0293	-0.0791	1.0410	-2.4280	2.0764	2.1368	21.1600 
242.365	-0.0493	-0.1016	1.0571	-2.2247	2.0599	2.4335	21.1700 
242.390	-0.0962	-0.0757	1.0791	-2.1094	2.0709	2.6202	21.1800 
242.410	-0.1060	-0.1050	1.0562	-1.9775	2.0874	2.7740	21.1900 
242.420	-0.1362	-0.1504	1.0630	-1.8402	2.0709	2.9443	21.1700 
242.439	-0.1611	-0.1118	1.0952	-1.6699	2.0599	3.1421	21.1700 
242.541	-0.1284	-0.0474	1.1250	-1.5875	2.1039	3.3838	21.1700 
242.555	-0.0771	-0.0195	1.1094	-1.6095	2.1643	3.6255	21.1700 
242.555	-0.0176	0.0112	1.0356	-1.6425	2.1973	3.7903	21.1700 
242.555	-0.0195	0.0000	0.9756	-1.7139	2.2028	3.8562	21.1500 
242.555	-0.0679	-0.0479	0.9111	-1.8018	2.2083	3.8068	21.1500 
242.563	-0.0884	-0.0854	0.9063	-1.8787	2.2137	3.7079	21.1500 
242.578	-0.1011	-0.1216	0.9614	-1.9446	2.2247	3.6200	21.1400 
242.600	-0.0869	-0.0850	0.9780	-1.9830	2.2522	3.5541	21.1500 
242.618	-0.0361	-0.0181	0.9727	-1.9666	2.2797	3.5046	21.1400 
242.642	-0.0225	-0.0098	0.9795	-1.9281	2.3016	3.4442	21.1500 
242.749	-0.0405	-0.0049	0.9971	-1.8896	2.3566	3.3069	21.1400 
242.763	-0.0645	-0.0005	0.9976	-1.8347	2.4280	3.1201	21.1500 
242.763	-0.0752	-0.0015	1.0010	-1.8018	2.5104	2.9279	21.1500 
242.763	-0.0830	0.0078	1.0034	-1.7963	2.5983	2.7631	21.1400 
242.763	-0.0640	0.0186	0.9971	-1.8457	2.6862	2.6257	21.1500 
242.769	-0.0308	0.0459	0.9849	-1.9006	2.7411	2.5159	21.1300 
242.782	-0.0142	0.0654	0.9678	-1.9501	2.7411	2.3895	21.1400 
242.805	-0.0161	0.0728	0.9683	-1.9995	2.7246	2.2302	21.1500 
242.828	-0.0234	0.0615	0.9790	-2.0709	2.7081	2.0160	21.1400 
242.839	-0.0400	0.0459	1.0054	-2.1808	2.6807	1.7688	21.1200 
242.951	-0.0469	0.0400	1.0176	-2.3126	2.6477	1.4886	21.1200 
242.964	-0.0435	0.0376	1.0420	-2.4390	2.5983	1.1920	21.1200 
242.964	-0.0459	0.0488	1.0435	-2.5159	2.5378	0.8899	21.1200 
242.964	-0.0439	0.0752	1.0342	-2.5873	2.4774	0.5768	21.1300 
242.964	-0.0449	0.0591	1.0386	-2.6697	2.4170	0.2582	21.1200 
242.964	-0.0547	0.0273	1.0693	-2.7686	2.3401	-0.0275	21.1400 
242.983	-0.0542	0.0239	1.0815	-2.8564	2.2467	-0.2747	21.1400 
243.006	-0.0488	0.0508	1.0732	-2.9224	2.1478	-0.4724	21.1300 
243.016	-0.0361	0.0581	1.1064	-3.0048	2.0490	-0.6427	21.1300 
243.037	0.0264	0.0513	1.1270	-3.1201	1.8896	-0.8350	21.1200 
243.056	0.0322	0.0410	1.1289	-3.1641	1.6589	-1.0162	21.1200 
243.155	-0.0020	-0.0220	1.1323	-3.1696	1.4557	-1.1920	21.1300 
243.166	-0.0010	-0.0454	1.1289	-3.1586	1.2360	-1.3458	21.1200 
243.167	0.0596	-0.1025	1.0864	-3.1915	0.9613	-1.4063	21.1100 
243.168	0.0801	-0.1191	1.0288	-3.2135	0.6592	-1.4008	21.1200 
243.168	0.1235	-0.1362	0.9951	-3.2080	0.3955	-1.4008	21.1100 
243.175	0.1528	-0.1890	1.0068	-3.2190	0.1648	-1.4557	21.1100 
243.195	0.1782	-0.2290	1.0732	-3.2245	-0.0330	-1.6095	21.0900 
243.215	0.1504	-0.2412	1.0991	-3.2080	-0.2087	-1.8237	21.1100 
243.235	0.0913	-0.2451	1.1558	-3.1915	-0.3131	-2.0929	21.1300 
243.257	0.0659	-0.2090	1.1548	-3.1696	-0.3790	-2.3291	21.1100 
243.364	0.0801	-0.1240	1.0547	-3.1366	-0.4285	-2.4719	21.1100 
243.383	0.0869	-0.0728	0.9692	-3.0267	-0.4999	-2.5378	21.1000 
243.383	0.1069	-0.0581	0.8643	-2.8839	-0.6042	-2.5214	21.1000 
243.383	0.1069	-0.0928	0.8882	-2.8125	-0.6866	-2.5104	21.1000 
243.383	0.0981	-0.1230	0.9512	-2.8070	-0.7526	-2.5378	21.1100 
243.398	0.1069	-0.1113	0.9663	-2.7960	-0.8185	-2.5653	21.1000 
243.404	0.1289	-0.0981	0.9707	-2.7850	-0.9009	-2.5214	21.1000 
243.421	0.1284	-0.0923	0.9829	-2.7905	-0.9668	-2.4335	21.0900 
243.443	0.1250	-0.0532	0.9893	-2.8015	-1.0052	-2.3236	21.0900 
243.455	0.1304	-0.0488	0.9932	-2.8345	-1.0217	-2.2028	21.1000 
243.572	0.1372	-0.0435	1.0112	-2.9333	-1.0107	-2.0709	21.0800 
243.583	0.1367	-0.0366	1.0308	-3.0707	-0.9833	-1.9666	21.0700 
243.583	0.1235	-0.0635	1.0249	-3.2410	-0.9558	-1.8677	21.0900 
243.583	0.0986	-0.0688	1.0269	-3.3893	-0.9229	-1.7853	21.1100 
243.584	0.0869	-0.0640	1.0073	-3.4937	-0.9229	-1.6589	21.0700 
243.584	0.1094	-0.0508	0.9805	-3.5651	-0.9558	-1.4612	21.0800 
243.593	0.1455	-0.0322	0.9717	-3.6365	-1.0162	-1.1755	21.0700 
243.613	0.1602	-0.0391	0.9897	-3.7189	-1.0492	-0.8844	21.0700 
243.634	0.1602	-0.0552	1.0181	-3.7793	-1.0657	-0.6042	21.0700 
243.653	0.1396	-0.0586	1.0400	-3.8232	-1.0547	-0.3516	21.0600 
243.675	0.1372	-0.0430	1.0210	-3.8287	-1.0217	-0.0989	21.0600 
243.784	0.1479	-0.0132	1.0098	-3.8013	-0.9723	0.1813	21.0500 
243.798	0.1577	0.0063	1.0083	-3.7518	-0.9064	0.4944	21.0600 
243.798	0.1484	0.0205	1.0181	-3.6859	-0.8130	0.8240	21.0600 
243.798	0.1348	0.0098	1.0313	-3.6145	-0.6921	1.1591	21.0500 
243.798	0.1318	0.0391	1.0391	-3.5321	-0.5713	1.5106	21.0500 
243.804	0.1597	0.0718	1.0400	-3.4442	-0.4834	1.8896	21.0300 
243.818	0.1968	0.0908	1.0518	-3.3673	-0.4340	2.3071	21.0500 
243.840	0.1904	0.0854	1.0713	-3.3124	-0.3790	2.6971	21.0500 
243.862	0.1650	0.0825	1.0854	-3.2574	-0.2802	3.0542	21.0400 
243.873	0.1636	0.0952	1.0640	-3.1805	-0.1758	3.4332	21.0500 
243.987	0.1797	0.1040	1.0298	-3.1036	-0.0934	3.8562	21.0300 
243.999	0.1758	0.0967	1.0122	-3.0267	0.0000	4.2792	21.0300 
243.999	0.1274	0.0352	1.0684	-3.0157	0.1483	4.6692	21.0300 
243.999	0.1011	0.0220	1.1646	-3.0652	0.3790	4.9823	21.0200 
243.999	0.1147	0.1084	1.2563	-3.1366	0.6372	5.2185	21.0200 
243.999	0.1050	0.0786	1.1885	-3.1915	0.8624	5.5151	21.0300 
244.024	0.0059	-0.0654	1.0889	-3.2245	1.1206	5.8173	21.0200 
244.032	-0.0571	-0.0679	1.0557	-3.2080	1.3678	6.0480	21.0100 
244.051	-0.0669	-0.1489	0.9658	-3.2025	1.4886	6.2842	21.0100 
244.072	-0.0752	-0.2300	0.9795	-3.3069	1.5436	6.4874	21.0200 
244.090	-0.1367	-0.1909	1.1011	-3.4717	1.5875	6.4545	20.9700 
244.192	-0.1533	-0.1709	1.1084	-3.6145	1.6260	6.3885	21.0000 
244.203	-0.1616	-0.1948	1.0845	-3.7903	1.6974	6.3336	21.0000 
244.204	-0.1582	-0.1719	1.0771	-3.9825	1.7908	6.2347	20.9800 
244.204	-0.0874	-0.1094	1.0493	-4.1364	1.8347	6.1139	20.9700 
244.204	-0.0293	-0.0815	1.0078	-4.2517	1.7633	5.9985	20.9800 
244.210	0.0059	-0.0513	0.9546	-4.3066	1.5930	5.8722	20.9800 
244.230	0.0103	-0.0869	0.9492	-4.3781	1.3678	5.7074	20.9700 
244.250	-0.0098	-0.1299	0.9351	-4.4714	1.1646	5.4932	20.9500 
244.270	-0.0166	-0.1211	0.9307	-4.5374	1.0382	5.2075	20.9600 
244.295	-0.0195	-0.1050	0.9385	-4.5978	0.9723	4.8944	20.9600 
244.412	-0.0195	-0.0552	0.9678	-4.6362	0.9448	4.5319	20.9400 
244.424	0.0068	-0.0117	0.9893	-4.6417	0.9009	4.1968	20.9400 
244.424	0.0225	0.0063	0.9868	-4.6307	0.8350	3.9001	20.9300 
244.424	0.0156	0.0112	0.9688	-4.6143	0.7910	3.5925	20.9200 
244.424	0.0020	0.0161	0.9717	-4.6088	0.7855	3.2849	20.9300 
244.424	-0.0103	0.0161	0.9570	-4.6252	0.7910	2.9773	20.9200 
244.430	-0.0054	0.0327	0.9663	-4.6472	0.7855	2.6971	20.9200 
244.449	0.0112	0.0327	0.9604	-4.6692	0.7581	2.4664	20.9200 
244.565	0.0181	0.0337	0.9600	-4.7131	0.7196	2.2357	20.9300 
244.571	0.0200	0.0220	0.9341	-4.7845	0.7141	1.9611	20.9100 
244.571	0.0171	0.0190	0.9453	-4.8615	0.7306	1.6479	20.9000 
244.571	-0.0132	-0.0313	0.9761	-4.9054	0.7416	1.3184	20.9100 
244.571	-0.0425	-0.0298	1.0024	-4.8999	0.7581	0.9833	20.9100 
244.571	-0.0557	-0.0005	1.0103	-4.8230	0.7745	0.6757	20.9000 
244.597	-0.0479	0.0156	1.0186	-4.7461	0.7965	0.4010	20.9000 
244.607	-0.0381	0.0220	1.0234	-4.6912	0.8240	0.1099	20.8800 
244.627	-0.0547	0.0259	1.0684	-4.6307	0.8569	-0.1648	20.8800 
244.647	-0.0835	0.0381	1.1396	-4.5044	0.8624	-0.4230	20.9000 
244.666	-0.0415	-0.0073	1.2554	-4.3726	0.7745	-0.6537	20.8800 
244.770	0.0806	-0.0439	1.3291	-4.2133	0.4449	-0.7745	20.8700 
244.782	0.0718	-0.0635	1.3462	-4.0045	0.0824	-0.8899	20.8700 
244.783	0.0767	-0.1177	1.3711	-3.9001	-0.1154	-1.0822	20.8700 
244.783	0.1216	-0.1484	1.2656	-3.8287	-0.2637	-1.1865	20.8500 
244.783	0.1494	-0.1328	1.1509	-3.7024	-0.4285	-1.1316	20.8700 
244.791	0.1758	-0.1909	1.0083	-3.5541	-0.6812	-0.9613	20.8600 
244.807	0.1934	-0.2681	0.9634	-3.4717	-0.9833	-0.8569	20.8600 
244.835	0.1367	-0.2856	1.0356	-3.4882	-1.1151	-1.0492	20.8500 
244.845	0.0820	-0.2305	1.0869	-3.5046	-1.1755	-1.4612	20.8400 
244.869	0.0771	-0.1904	1.0693	-3.5101	-1.3074	-1.7688	20.8500 
244.891	0.0962	-0.1880	1.0322	-3.5596	-1.4722	-1.8842	20.8300 
244.988	0.1235	-0.1152	0.9365	-3.5596	-1.6260	-1.8787	20.8200 
245.004	0.1558	-0.1060	0.8574	-3.5321	-1.7908	-1.7249	20.8300 
245.004	0.1685	-0.1064	0.8208	-3.5486	-1.8951	-1.5656	20.8200 
245.004	0.1421	-0.1099	0.8887	-3.5870	-1.9446	-1.4941	20.8200 
245.004	0.1333	-0.1606	0.9102	-3.6365	-2.0270	-1.4227	20.8100 
245.010	0.1270	-0.1733	0.9326	-3.7024	-2.0874	-1.3184	20.8300 
245.025	0.1357	-0.1172	0.9663	-3.7518	-2.1039	-1.1646	20.8000 
245.045	0.1509	-0.0815	0.9746	-3.7848	-2.1149	-0.9119	20.8000 
245.065	0.1748	-0.0601	0.9878	-3.8232	-2.1149	-0.5548	20.8300 
245.087	0.1709	-0.0596	1.0127	-3.8837	-2.0874	-0.1813	20.8200 
245.189	0.1772	-0.0527	1.0200	-3.9551	-2.0435	0.2142	20.8200 
245.201	0.1763	-0.0488	1.0112	-4.0320	-1.9940	0.6097	20.8300 
245.201	0.1685	-0.0454	0.9907	-4.1034	-1.9611	1.0272	20.8200 
245.201	0.1641	-0.0415	0.9775	-4.1528	-1.9446	1.4557	20.8100 
245.201	0.1680	-0.0371	0.9595	-4.1803	-1.9281	1.8787	20.7900 
245.207	0.1655	-0.0361	0.9795	-4.2352	-1.8567	2.2522	20.8000 
245.225	0.1699	-0.0254	1.0010	-4.2847	-1.7743	2.5928	20.8100 
245.248	0.1699	-0.0229	1.0171	-4.3011	-1.6974	2.9224	20.8300 
245.267	0.1724	-0.0068	1.0269	-4.2682	-1.6534	3.2629	20.8100 
245.290	0.1758	0.0039	1.0293	-4.1968	-1.6425	3.6310	20.7800 
245.401	0.1992	0.0317	1.0146	-4.0979	-1.6370	4.0320	20.8000 
245.412	0.1958	0.0444	1.0298	-4.0100	-1.5985	4.4330	20.8100 
245.412	0.1719	0.0459	1.0459	-3.9441	-1.4832	4.8120	20.7800 
245.412	0.1689	0.0405	1.0576	-3.9056	-1.2909	5.1471	20.7900 
245.413	0.1816	0.0225	1.0898	-3.9001	-1.0657	5.4767	20.7800 
245.413	0.1895	0.0215	1.0903	-3.8947	-0.8514	5.8173	20.7900 
245.423	0.1909	0.0527	1.0684	-3.8562	-0.6482	6.1853	20.7900 
245.442	0.1846	0.0684	1.0576	-3.7958	-0.4559	6.5753	20.7700 
245.462	0.1636	0.0269	1.0420	-3.7463	-0.2527	6.9818	20.7900 
245.482	0.1299	-0.0303	1.0845	-3.7299	-0.0055	7.3608	20.7800 
245.504	0.0845	0.0132	1.2217	-3.7299	0.2911	7.6465	20.7700 
245.608	0.0981	0.0098	1.1836	-3.6530	0.5109	7.9541	20.7800 
245.622	0.0552	-0.0469	1.1538	-3.5431	0.6372	8.2782	20.7700 
245.623	0.0063	-0.0479	1.0762	-3.3728	0.7031	8.5638	20.7700 
245.623	-0.0806	-0.0889	0.9399	-3.1750	0.8020	8.7671	20.7700 
245.623	-0.1509	-0.1943	0.9546	-3.1091	0.9888	8.8110	20.7500 
245.630	-0.1982	-0.2041	1.1128	-3.2025	1.2799	8.6298	20.7600 
245.642	-0.1646	-0.1367	1.1353	-3.2849	1.4612	8.5199	20.7600 
245.673	-0.1089	-0.1016	1.1494	-3.4003	1.5271	8.5693	20.7600 
245.688	-0.0645	-0.0938	1.1030	-3.5431	1.5381	8.6627	20.7500 
245.702	-0.0273	-0.0713	1.0581	-3.6969	1.4996	8.7616	20.7500 
245.824	-0.0083	-0.0566	0.9482	-3.8013	1.4117	8.8715	20.7600 
245.830	-0.0137	-0.0713	0.8828	-3.8727	1.2799	8.9758	20.7500 
245.830	-0.0273	-0.0723	0.8867	-3.9276	1.1481	9.0308	20.7300 
245.830	-0.0161	-0.0732	0.9048	-4.0045	1.0052	9.0472	20.7300 
245.830	0.0039	-0.0371	0.9287	-4.0759	0.9009	9.0363	20.7300 
245.830	0.0244	-0.0361	0.9219	-4.1364	0.8240	8.9923	20.7400 
245.841	0.0288	-0.0151	0.9585	-4.2297	0.8185	8.8440	20.7200 
245.862	0.0171	-0.0093	0.9873	-4.3341	0.8624	8.5913	20.7400 
245.882	-0.0088	-0.0293	1.0068	-4.4385	0.9229	8.3002	20.7000 
245.904	-0.0166	-0.0586	1.0044	-4.5264	0.9888	8.0255	20.7100 
245.926	-0.0332	-0.0483	1.0200	-4.6088	1.0602	7.7838	20.7100 
246.061	-0.0127	-0.0068	1.0200	-4.6747	1.0986	7.5806	20.7000 
246.067	0.0225	0.0210	0.9844	-4.7406	1.0986	7.4377	20.7200 
246.067	0.0239	0.0249	0.9741	-4.7955	1.1041	7.2729	20.7100 
246.067	0.0103	0.0151	0.9736	-4.8285	1.1151	7.0477	20.7000 
246.067	-0.0073	-0.0107	0.9995	-4.8560	1.1316	6.7786	20.7100 
246.067	-0.0190	0.0083	1.0513	-4.8834	1.1536	6.4435	20.7100 
246.068	-0.0107	0.0371	1.0537	-4.8889	1.1646	6.1084	20.7200 
246.078	-0.0039	0.0513	1.0547	-4.8560	1.1646	5.7843	20.7000 
246.099	-0.0122	0.0586	1.0571	-4.7900	1.1536	5.4437	20.7200 
246.237	-0.0068	0.0781	1.0469	-4.7076	1.1261	5.0537	20.7100 
246.244	0.0005	0.0571	1.0239	-4.6472	1.0767	4.6198	20.6900 
246.244	-0.0200	-0.0122	1.0107	-4.5978	0.9943	4.1803	20.7100 
246.244	-0.0298	-0.0586	1.0649	-4.5483	0.8734	3.7518	20.7000 
246.244	0.0415	-0.0557	1.1904	-4.5044	0.6537	3.3673	20.6900 
246.244	0.0840	-0.0430	1.2188	-4.3945	0.3680	3.0872	20.6900 
246.244	0.1191	-0.0811	1.1938	-4.2133	0.0769	2.8839	20.7000 
246.259	0.1436	-0.1680	1.1440	-4.0045	-0.1978	2.7905	20.6900 
246.278	0.1226	-0.2275	1.1479	-3.7793	-0.3680	2.7631	20.6900 
246.407	0.1436	-0.2222	1.1802	-3.5706	-0.4504	2.7631	20.6900 
246.414	0.1855	-0.1201	1.1421	-3.3838	-0.4889	2.7521	20.6800 
246.414	0.1772	-0.1055	1.1016	-3.2355	-0.4889	2.6917	20.6900 
246.414	0.0864	-0.2168	1.0889	-3.2190	-0.3845	2.5159	20.6800 
246.414	0.0215	-0.2065	1.0811	-3.2959	-0.1154	2.1478	20.6900 
246.414	-0.0220	-0.1064	1.0117	-3.3069	0.2087	1.8457	20.6800 
246.421	0.0103	-0.1079	0.9341	-3.2684	0.4614	1.8567	20.6900 
246.441	0.0747	-0.0854	0.8701	-3.2465	0.6372	2.0435	20.6900 
246.463	0.0894	-0.0693	0.8628	-3.2300	0.7690	2.2577	20.6800 
246.487	0.0610	-0.0898	0.8691	-3.1860	0.8569	2.4060	20.6700 
246.508	0.0347	-0.1069	0.8975	-3.1805	0.9668	2.4500	20.6700 
246.629	0.0410	-0.0894	0.9268	-3.2300	1.0876	2.4280	20.6700 
246.629	0.0571	-0.0781	0.9438	-3.3069	1.1700	2.4390	20.6600 
246.629	0.0718	-0.0537	0.9751	-3.4003	1.2140	2.5214	20.6500 
246.629	0.0830	-0.0288	0.9980	-3.4717	1.2195	2.6587	20.6600 
246.629	0.1001	-0.0327	1.0039	-3.5541	1.1810	2.8290	20.6600 
246.629	0.0991	-0.0347	1.0156	-3.6475	1.1481	2.9883	20.6400 
246.636	0.1069	-0.0552	1.0107	-3.7408	1.1041	3.1750	20.6400 
246.655	0.0957	-0.0718	1.0278	-3.8342	1.0822	3.3893	20.6400 
246.677	0.0845	-0.0645	1.0625	-3.9111	1.0931	3.5980	20.6400 
246.696	0.1074	-0.0620	1.0537	-3.9771	1.0931	3.8342	20.6400 
246.717	0.1226	-0.0356	1.0474	-4.0045	1.0822	4.0814	20.6500 
246.840	0.1309	0.0029	1.0181	-3.9661	1.0327	4.3671	20.6400 
246.847	0.1323	0.0127	1.0288	-3.8837	0.9668	4.6967	20.6300 
246.847	0.1553	0.0400	1.0254	-3.7463	0.8954	5.0922	20.6400 
246.847	0.1665	0.0586	1.0229	-3.5870	0.8459	5.5096	20.6200 
246.847	0.1602	0.0801	1.0596	-3.4332	0.8459	5.8722	20.6300 
246.847	0.1582	0.0742	1.0723	-3.3069	0.8954	6.1688	20.6300 
246.855	0.1421	0.0610	1.0396	-3.1311	0.9338	6.4325	20.6300 
246.875	0.1113	-0.0176	1.0649	-2.9663	0.9888	6.6907	20.6100 
246.896	0.0469	-0.0376	1.2900	-2.8729	1.1591	6.8280	20.6100 
246.919	0.0596	0.0781	1.2993	-2.7136	1.3239	6.9543	20.6100 
246.942	0.0444	0.1099	1.2231	-2.5323	1.4777	7.1741	20.6000 
247.052	0.0117	0.0762	1.0947	-2.3346	1.5765	7.4542	20.6100 
247.065	-0.0278	-0.0488	0.9258	-2.2137	1.6644	7.6959	20.6000 
247.065	-0.0698	-0.1816	0.8984	-2.2192	1.7413	7.8333	20.5900 
247.065	-0.1528	-0.2646	1.0625	-2.4115	1.8787	7.7673	20.5800 
247.065	-0.1689	-0.2046	1.1279	-2.6312	1.9995	7.6849	20.5900 
247.065	-0.1543	-0.1636	1.0767	-2.8290	2.0819	7.8113	20.5800 
247.074	-0.1187	-0.1353	1.0840	-3.0981	2.2028	8.0530	20.5800 
247.094	-0.0161	-0.0366	1.0488	-3.3563	2.2467	8.3441	20.5700 
247.211	0.0474	-0.0186	0.9741	-3.5486	2.1753	8.6572	20.5600 
247.218	0.0288	-0.0200	0.9326	-3.6749	2.0599	8.8000	20.5600 
247.218	-0.0054	-0.0610	0.9229	-3.7683	1.9501	8.8000	20.5600 
247.218	-0.0352	-0.0771	0.9453	-3.9001	1.8732	8.6737	20.5500 
247.218	-0.0454	-0.0625	0.9438	-4.0265	1.8237	8.5144	20.5500 
247.218	-0.0239	-0.0635	0.9531	-4.1638	1.7853	8.3990	20.5600 
247.233	-0.0093	-0.0488	0.9546	-4.3066	1.7578	8.2727	20.5600 
247.252	0.0044	-0.0181	0.9570	-4.4440	1.7523	8.0914	20.5600 
247.272	-0.0132	-0.0068	0.9595	-4.5758	1.7688	7.8387	20.5500 
247.292	-0.0269	-0.0142	0.9761	-4.7186	1.8237	7.5476	20.5300 
247.315	-0.0317	-0.0073	0.9951	-4.8834	1.8951	7.2345	20.5500 
247.422	-0.0166	0.0103	0.9829	-5.0647	1.9281	6.9489	20.5400 
247.435	-0.0015	0.0015	0.9663	-5.2295	1.9391	6.6907	20.5400 
247.435	0.0068	0.0020	0.9614	-5.3888	1.9281	6.4270	20.5200 
247.435	0.0044	0.0068	0.9932	-5.5371	1.9226	6.1194	20.5200 
247.435	0.0000	-0.0083	0.9814	-5.6689	1.8622	5.8063	20.5200 
247.441	-0.0161	-0.0112	1.0044	-5.7898	1.8292	5.4437	20.5200 
247.455	-0.0337	-0.0122	1.0591	-5.9161	1.8292	5.0372	20.5300 
247.480	-0.0229	0.0117	1.0679	-5.9766	1.8073	4.6252	20.5200 
247.499	-0.0283	0.0200	1.0513	-5.9381	1.7139	4.2902	20.4900 
247.522	-0.0366	0.0449	1.0771	-5.8557	1.6315	3.9661	20.5100 
247.531	-0.0186	0.0034	1.0864	-5.7898	1.5546	3.6584	20.5100 
247.632	-0.0190	-0.0337	1.1455	-5.7513	1.5161	3.3344	20.4900 
247.644	0.0527	-0.0835	1.3081	-5.7843	1.4392	3.0212	20.5000 
247.645	0.1040	-0.0796	1.3350	-5.7843	1.2469	2.8345	20.4900 
247.645	0.1343	-0.0786	1.2847	-5.6909	0.9613	2.8180	20.5100 
247.645	0.1465	-0.1050	1.1509	-5.5316	0.6372	2.9333	20.4900 
247.651	0.1270	-0.1294	1.0024	-5.3009	0.3516	3.1421	20.4800 
247.670	0.1606	-0.1792	0.9741	-5.1416	0.1538	3.3728	20.4900 
247.690	0.1860	-0.2168	0.9658	-5.1141	0.0659	3.4827	20.4800 
247.715	0.1533	-0.2495	0.9771	-5.1031	0.0549	3.3618	20.4800 
247.733	0.1060	-0.2905	1.0410	-5.1526	0.1593	3.0542	20.4900 
247.848	0.0493	-0.3237	1.1606	-5.2405	0.3241	2.6477	20.4800 
247.860	0.0469	-0.2319	1.1563	-5.2734	0.4834	2.2906	20.4800 
247.860	0.0776	-0.1543	1.0815	-5.2789	0.6207	2.1259	20.4900 
247.860	0.1006	-0.1040	0.9985	-5.1581	0.6537	2.1478	20.4700 
247.860	0.1133	-0.0581	0.9170	-4.9823	0.6921	2.1918	20.4700 
247.860	0.1011	-0.0571	0.8755	-4.7845	0.7141	2.1973	20.4600 
247.870	0.0664	-0.1079	0.8589	-4.6307	0.7251	2.1698	20.4600 
247.889	0.0557	-0.1343	0.8721	-4.5483	0.7471	2.0929	20.4500 
247.908	0.0562	-0.1245	0.8931	-4.5099	0.7965	2.0105	20.4500 
247.928	0.0684	-0.1118	0.8965	-4.4495	0.8295	1.9830	20.4500 
247.949	0.0903	-0.0513	0.9336	-4.3561	0.8350	1.9830	20.4400 
248.068	0.1123	-0.0376	0.9707	-4.2737	0.8185	2.0270	20.4500 
248.075	0.1421	-0.0410	1.0010	-4.2297	0.7965	2.1039	20.4400 
248.075	0.1455	-0.0342	1.0024	-4.1748	0.7635	2.2083	20.4500 
248.075	0.1333	-0.0273	1.0210	-4.1034	0.7416	2.3511	20.4500 
248.075	0.1318	-0.0273	1.0254	-4.0320	0.7251	2.5378	20.4400 
248.075	0.1343	-0.0537	1.0581	-3.9771	0.7526	2.7795	20.4300 
248.088	0.1353	-0.0322	1.0498	-3.8892	0.8020	3.0377	20.4400 
248.107	0.1489	0.0313	1.0547	-3.7408	0.8679	3.3289	20.4400 
248.224	0.1631	0.0610	1.0562	-3.5760	0.9283	3.6694	20.4500 
248.230	0.1797	0.0610	1.0396	-3.3893	0.9833	4.0320	20.4200 
248.230	0.1792	0.0591	1.0474	-3.2025	1.0712	4.3726	20.4200 
248.230	0.1597	0.0815	1.0620	-3.0157	1.2085	4.6582	20.4100 
248.230	0.1406	0.0552	1.0493	-2.8455	1.3898	4.9109	20.4000 
248.230	0.0830	0.0044	1.1138	-2.7026	1.6370	5.1196	20.4100 
248.263	0.0532	-0.0112	1.2031	-2.5488	1.8896	5.3119	20.4000 
248.283	0.0483	0.0698	1.2456	-2.2906	2.0544	5.5426	20.4000 
248.303	0.0552	0.0532	1.2402	-1.9775	2.0599	5.8502	20.4000 
248.309	0.0215	0.0596	1.1177	-1.6534	1.9775	6.1304	20.4000 
248.326	-0.0532	-0.0083	0.9980	-1.3788	1.9336	6.3336	20.3800 
248.444	-0.1616	-0.2153	0.9517	-1.2415	1.9830	6.3940	20.3900 
248.451	-0.1953	-0.2148	1.0317	-1.1975	2.1149	6.3281	20.3900 
248.452	-0.1543	-0.1167	1.1030	-1.2524	2.2742	6.3666	20.3700 
248.452	-0.1021	-0.0762	1.1064	-1.4227	2.3895	6.6083	20.3700 
248.452	-0.0415	-0.0562	1.0957	-1.6315	2.4445	6.9104	20.3600 
248.452	-0.0195	-0.0664	1.0913	-1.8622	2.4719	7.1521	20.3600 
248.468	-0.0313	-0.0391	1.0151	-2.0544	2.4500	7.2949	20.3700 
248.485	-0.0352	-0.0527	0.9502	-2.2357	2.3950	7.3883	20.3600 
248.506	-0.0610	-0.0771	0.9111	-2.4335	2.3291	7.4268	20.3500 
248.526	-0.0786	-0.0615	0.9126	-2.6202	2.2906	7.3993	20.3600 
248.547	-0.0586	-0.0537	0.9180	-2.7686	2.2467	7.3938	20.3600 
248.666	-0.0469	-0.0366	0.9058	-2.8949	2.2028	7.3993	20.3500 
248.672	-0.0361	-0.0405	0.9067	-3.0432	2.2028	7.3444	20.3500 
248.672	-0.0474	-0.0405	0.9272	-3.2080	2.2302	7.2235	20.3400 
248.672	-0.0625	-0.0186	0.9702	-3.3563	2.2961	7.0532	20.3200 
248.672	-0.0640	0.0210	1.0112	-3.4882	2.3566	6.8994	20.3100 
248.672	-0.0381	0.0391	1.0073	-3.6090	2.3566	6.8005	20.3400 
248.686	-0.0215	0.0635	0.9917	-3.7134	2.3126	6.7072	20.3100 
248.704	-0.0015	0.0796	0.9521	-3.7683	2.2137	6.5918	20.3100 
248.725	-0.0117	0.0879	0.9624	-3.8013	2.0709	6.4215	20.3100 
248.743	0.0000	0.0693	0.9653	-3.8232	1.8018	6.2842	20.3100 
248.767	0.0396	0.0796	0.9541	-3.8782	1.4832	6.1304	20.3100 
248.867	0.0264	0.0928	0.9497	-4.0045	1.2799	5.8557	20.3200 
248.880	0.0137	0.0576	0.9585	-4.1638	1.1481	5.5536	20.2900 
248.880	0.0059	0.0293	1.0044	-4.3231	0.9723	5.2515	20.2900 
248.880	-0.0005	0.0142	1.0767	-4.4550	0.7635	4.9219	20.2700 
248.880	0.0034	0.0415	1.0747	-4.5264	0.5548	4.6033	20.2700 
248.887	0.0054	0.1050	1.0688	-4.5374	0.3845	4.3506	20.2800 
248.903	0.0303	0.1362	1.0586	-4.5374	0.2032	4.1638	20.2800 
248.927	0.0703	0.1406	1.0366	-4.5264	-0.0165	3.9935	20.2700 
248.947	0.0894	0.0781	1.1167	-4.5703	-0.2802	3.7793	20.2600 
248.969	0.1426	0.0220	1.2515	-4.6252	-0.6592	3.5156	20.2600 
249.076	0.1235	-0.1196	1.2920	-4.6472	-1.1096	3.2794	20.2600 
249.089	0.1821	-0.2407	1.3647	-4.8230	-1.4172	3.0103	20.2500 
249.089	0.1978	-0.2944	1.2617	-4.8505	-1.8018	2.9279	20.2500 
249.089	0.2051	-0.3564	1.1304	-4.8120	-2.1478	3.0597	20.2600 
249.090	0.1743	-0.3735	1.1294	-4.8615	-2.2577	3.1311	20.2600 
249.090	0.1138	-0.3325	1.1470	-5.0208	-2.0929	2.9608	20.2500 
249.109	0.0762	-0.2427	1.1348	-5.1251	-1.8347	2.7081	20.2400 
249.131	0.0723	-0.1470	1.0508	-5.1746	-1.6040	2.5653	20.2300 
249.142	0.1021	-0.1484	0.9585	-5.2405	-1.4392	2.5378	20.2300 
249.164	0.1104	-0.1641	0.8682	-5.3448	-1.2799	2.5708	20.2300 
249.183	0.1133	-0.1968	0.8330	-5.4547	-1.0986	2.6038	20.2600 
249.282	0.0669	-0.1802	0.8687	-5.5316	-0.8734	2.5873	20.2100 
249.296	0.0669	-0.1646	0.8970	-5.5096	-0.6427	2.5378	20.2200 
249.296	0.0947	-0.1548	0.9258	-5.4767	-0.4834	2.5488	20.2200 
249.296	0.1128	-0.1338	0.9395	-5.4272	-0.3571	2.5928	20.2100 
249.296	0.1221	-0.0957	0.9419	-5.3503	-0.2582	2.7081	20.2100 
249.302	0.1299	-0.0815	0.9453	-5.2625	-0.2032	2.9114	20.2100 
249.321	0.1333	-0.0723	0.9585	-5.1691	-0.1758	3.1860	20.2100 
249.437	0.1260	-0.0571	0.9727	-5.0867	-0.1263	3.4662	20.2100 
249.445	0.1323	-0.0273	0.9727	-5.0043	-0.0385	3.7299	20.1900 
249.445	0.1353	0.0024	0.9722	-4.9384	0.0659	3.9990	20.2000 
249.445	0.1216	-0.0200	0.9746	-4.9219	0.2197	4.2627	20.1900 
249.445	0.1196	-0.0327	0.9902	-4.9493	0.4285	4.5099	20.2100 
249.445	0.1250	-0.0234	1.0220	-4.9823	0.6647	4.7571	20.2100 
249.470	0.1333	-0.0161	1.0410	-5.0098	0.9064	5.0153	20.2000 
249.480	0.1411	-0.0337	1.0625	-5.0153	1.1261	5.3064	20.1800 
249.499	0.1289	-0.0176	1.0977	-4.9878	1.3348	5.6085	20.2000 
249.519	0.1240	0.0430	1.0879	-4.8779	1.5271	5.9161	20.1900 
249.539	0.1372	0.0728	1.0728	-4.7241	1.7194	6.2567	20.1800 
249.639	0.1299	0.0664	1.0620	-4.5648	1.9171	6.6412	20.2000 
249.653	0.1094	0.0615	1.0601	-4.4165	2.1259	6.9873	20.2000 
249.653	0.0752	0.0176	1.0503	-4.2352	2.3016	7.3169	20.1800 
249.653	0.0317	-0.0396	1.0952	-4.0485	2.4445	7.6575	20.1800 
249.654	-0.0122	-0.0562	1.1729	-3.8452	2.5818	7.9651	20.2000 
249.661	-0.0161	-0.0259	1.2124	-3.5760	2.6093	8.3496	20.1800 
249.678	-0.0225	-0.0288	1.2090	-3.3179	2.5543	8.7781	20.1600 
249.699	-0.0586	-0.0845	1.1416	-3.0707	2.4445	9.2175	20.1800 
249.720	-0.0977	-0.0776	1.1094	-2.8839	2.3950	9.5142	20.1800 
249.742	-0.1426	-0.1436	1.0396	-2.8015	2.4060	9.7339	20.1700 
249.850	-0.1714	-0.1514	1.0933	-2.8619	2.5104	9.9261	20.1500 
249.863	-0.1001	-0.0815	1.1201	-2.9883	2.5543	10.2228	20.1600 
249.863	-0.0347	-0.0718	1.0757	-3.1750	2.4774	10.6183	20.1400 
249.864	0.0200	-0.0801	1.0034	-3.4003	2.3840	10.9644	20.1600 
249.864	0.0127	-0.0718	0.9590	-3.6090	2.3346	11.1621	20.1500 
249.870	-0.0234	-0.0908	0.8877	-3.7958	2.3126	11.2610	20.1700 
249.886	-0.0479	-0.0933	0.8735	-3.9716	2.3071	11.3214	20.1400 
249.908	-0.0410	-0.0620	0.8784	-4.0979	2.3181	11.3434	20.1500 
249.917	-0.0181	-0.0400	0.8882	-4.1968	2.3236	11.3599	20.1300 
249.937	-0.0029	0.0098	0.9194	-4.2792	2.3456	11.2994	20.1500 
249.957	-0.0034	0.0117	0.9375	-4.3616	2.3676	11.1786	20.1300 
250.058	-0.0181	-0.0142	0.9761	-4.4714	2.3895	10.9644	20.1400 
250.071	-0.0361	-0.0298	0.9893	-4.5703	2.3950	10.7172	20.1300 
250.071	-0.0513	-0.0317	1.0054	-4.6307	2.3895	10.4755	20.1300 
250.071	-0.0488	-0.0117	0.9990	-4.6637	2.3676	10.2612	20.1200 
250.071	-0.0317	0.0264	0.9839	-4.7021	2.3456	10.0690	20.1300 
250.077	-0.0039	0.0415	0.9785	-4.7516	2.3016	9.8712	20.1200 
250.096	0.0176	0.0288	0.9946	-4.8340	2.2302	9.6625	20.1100 
250.118	0.0015	0.0259	1.0005	-4.9164	2.1588	9.3823	20.1200 
250.138	-0.0249	0.0342	1.0171	-4.9713	2.1094	9.0198	20.1100 
250.163	-0.0391	0.0107	1.0425	-5.0153	2.0709	8.6572	20.1000 
250.265	-0.0430	0.0415	1.0786	-5.0043	2.0050	8.2947	20.1100 
250.278	-0.0303	0.0703	1.0767	-4.9219	1.8732	7.9761	20.1100 
250.278	-0.0083	0.0903	1.0479	-4.7955	1.6864	7.7014	20.1100 
250.278	-0.0029	0.0674	1.0361	-4.6857	1.4777	7.4323	20.1000 
250.278	0.0015	0.0010	1.0962	-4.6307	1.2854	7.1356	20.0900 
250.284	0.0303	-0.0869	1.2021	-4.6252	1.0822	6.8555	20.1000 
250.304	0.0815	-0.0840	1.2637	-4.5703	0.7965	6.6467	20.1100 
250.325	0.1094	-0.0728	1.2817	-4.4769	0.4504	6.5094	20.1000 
250.346	0.1865	-0.1904	1.1167	-4.3176	-0.0165	6.5698	20.1200 
250.354	0.1792	-0.2827	1.0620	-4.1418	-0.4614	6.7511	20.0800 
250.374	0.1616	-0.3213	1.0742	-4.0430	-0.7086	6.8829	20.0800 
250.474	0.1519	-0.3008	1.1074	-4.0265	-0.8020	6.8939	20.0700 
250.489	0.1191	-0.2710	1.1733	-4.0375	-0.8350	6.8335	20.0800 
250.490	0.0991	-0.2324	1.1846	-4.0100	-0.8405	6.7621	20.0600 
250.490	0.0737	-0.1226	1.1206	-3.9661	-0.7471	6.7126	20.0900 
250.490	0.0801	-0.0874	0.9849	-3.8727	-0.5933	6.7676	20.0800 
250.496	0.1128	-0.0708	0.8315	-3.7738	-0.3790	6.9543	20.0800 
250.514	0.1187	-0.0732	0.7949	-3.7134	-0.1373	7.1246	20.0500 
250.534	0.0986	-0.0864	0.8184	-3.6694	0.0769	7.1686	20.0700 
250.554	0.0742	-0.1025	0.8579	-3.5870	0.2417	7.1136	20.0700 
250.579	0.0693	-0.1245	0.8984	-3.4827	0.3296	7.0587	20.0700 
250.686	0.0762	-0.1147	0.9785	-3.3728	0.3790	7.0422	20.0800 
250.699	0.1011	-0.0806	1.0063	-3.2520	0.4285	7.0807	20.0600 
250.699	0.1392	-0.0073	0.9858	-3.1201	0.4724	7.1631	20.0700 
250.699	0.1372	0.0083	0.9976	-2.9663	0.4944	7.2784	20.0600 
250.699	0.1362	0.0010	1.0161	-2.8235	0.4834	7.4103	20.0500 
250.699	0.1162	0.0161	1.0356	-2.7136	0.5054	7.4762	20.0500 
250.719	0.1001	-0.0024	1.0220	-2.6697	0.5548	7.5311	20.0500 
250.733	0.0981	-0.0259	1.0200	-2.6971	0.6482	7.6135	20.0500 
250.757	0.1099	-0.0093	1.0273	-2.7356	0.7581	7.7179	20.0500 
250.775	0.1245	0.0313	1.0415	-2.7521	0.8844	7.8168	20.0500 
250.903	0.1499	0.0337	1.0361	-2.7466	0.9778	7.9266	20.0500 
250.910	0.1494	0.0210	1.0420	-2.7081	1.0327	8.0310	20.0600 
250.910	0.1421	0.0093	1.0630	-2.6367	1.0822	8.1134	20.0500 
250.910	0.1489	0.0210	1.0527	-2.5269	1.1261	8.2397	20.0400 
250.910	0.1641	0.0571	1.0337	-2.3566	1.1920	8.4375	20.0500 
250.910	0.1738	0.0713	1.0313	-2.1478	1.2854	8.6957	20.0600 
250.916	0.1440	0.0361	1.0239	-1.8951	1.4172	8.9703	20.0400 
250.942	0.0962	-0.0176	1.0645	-1.6534	1.6150	9.2010	20.0400 
250.961	0.0493	-0.0068	1.1987	-1.4227	1.8567	9.3439	20.0300 
251.062	0.0386	0.0073	1.2017	-1.1096	2.0544	9.5691	20.0300 
251.077	-0.0229	-0.0020	1.2729	-0.7690	2.2302	9.8987	20.0500 
251.077	-0.0488	0.1274	1.2222	-0.3680	2.3785	10.2228	20.0300 
251.077	-0.0791	0.1011	1.0049	-0.0989	2.5598	10.4645	20.0200 
251.077	-0.1221	-0.0786	0.9385	-0.1044	2.8290	10.5524	20.0400 
251.084	-0.2476	-0.1538	1.0923	-0.2966	3.2355	10.4095	20.0100 
251.096	-0.2524	-0.1572	1.1392	-0.4559	3.5376	10.3711	20.0200 
251.120	-0.1216	-0.0703	1.1187	-0.6921	3.6420	10.5469	20.0200 
251.139	-0.0430	-0.0283	1.1172	-1.0217	3.6749	10.7666	20.0100 
251.162	0.0151	-0.0010	0.9990	-1.2744	3.6145	10.9918	20.0000 
251.171	-0.0068	0.0132	0.9487	-1.4502	3.5541	11.0962	20.0100 
251.283	-0.0498	-0.0181	0.8716	-1.5875	3.4827	11.0797	20.0100 
251.295	-0.0630	-0.0332	0.8643	-1.7084	3.3893	10.9863	20.0100 
251.295	-0.0698	-0.0405	0.8848	-1.8512	3.2794	10.8325	20.0100 
251.295	-0.0781	-0.0298	0.9160	-2.0050	3.2025	10.6128	20.0100 
251.295	-0.0742	-0.0400	0.9272	-2.1423	3.1366	10.4041	20.0100 
251.295	-0.0747	-0.0337	0.9458	-2.2687	3.0927	10.2118	20.0000 
251.320	-0.0654	-0.0308	0.9756	-2.3840	3.0597	10.0415	20.0000 
251.340	-0.0571	-0.0117	0.9785	-2.4774	3.0267	9.8932	20.0100 
251.360	-0.0498	0.0063	0.9688	-2.5323	3.0157	9.7559	20.0000 
251.371	-0.0430	0.0176	0.9648	-2.5873	3.0267	9.6295	19.9900 
251.388	-0.0171	0.0532	0.9814	-2.6642	3.0597	9.4977	19.9900 
251.494	0.0010	0.0771	1.0083	-2.7795	3.0872	9.3713	19.9900 
251.507	0.0024	0.0869	0.9971	-2.9059	3.0927	9.2010	20.0100 
251.507	-0.0122	0.0811	1.0005	-3.0267	3.0981	8.9868	19.9900 
251.507	-0.0273	0.0562	1.0127	-3.1366	3.0872	8.7341	20.0000 
251.508	-0.0396	0.0430	1.0293	-3.2135	3.0267	8.4705	19.9800 
251.515	-0.0396	0.0298	1.0376	-3.2739	2.9224	8.1848	19.9900 
251.532	-0.0410	0.0342	1.0508	-3.3014	2.7960	7.8992	19.9900 
251.553	-0.0430	0.0532	1.0737	-3.2684	2.6532	7.6300	19.9900 
251.574	-0.0273	0.0874	1.0762	-3.1915	2.4774	7.4268	19.9600 
251.606	-0.0029	0.0898	1.0425	-3.0981	2.2577	7.2675	19.9800 
251.702	0.0171	0.0522	1.0664	-3.0212	2.0490	7.1027	19.9700 
251.714	0.0278	-0.0161	1.1475	-2.9773	1.8567	6.9104	19.9700 
251.714	0.0264	0.0244	1.2910	-2.9004	1.6699	6.7236	19.9800 
251.714	0.0454	0.0098	1.3154	-2.8345	1.4557	6.6467	19.9800 
251.714	0.1143	-0.0234	1.2192	-2.7905	1.2524	6.6797	19.9700 
251.714	0.1123	-0.0527	1.1191	-2.6917	1.0986	6.7676	19.9900 
251.736	0.1011	-0.1113	0.9946	-2.5708	0.9998	6.8445	19.9700 
251.747	0.1074	-0.1470	0.9663	-2.4719	0.9448	6.9049	19.9600 
251.766	0.1338	-0.1768	1.0059	-2.4115	0.8844	6.9379	19.9900 
251.786	0.1377	-0.1860	1.0605	-2.3895	0.7910	6.9324	19.9700 
251.806	0.1064	-0.2280	1.1616	-2.4554	0.7086	6.8555	19.9600 
251.911	0.0674	-0.2036	1.2124	-2.5928	0.6921	6.6962	19.9500 
251.925	0.0371	-0.1226	1.0708	-2.6697	0.7251	6.5588	19.9500 
251.926	0.0332	-0.0776	0.9780	-2.6752	0.7800	6.5369	19.9500 
251.926	0.0630	-0.0654	0.8496	-2.6202	0.7800	6.6687	19.9400 
251.926	0.0615	-0.0825	0.8252	-2.5873	0.7635	6.8500	19.9500 
251.934	0.0498	-0.0864	0.8550	-2.5104	0.7086	6.9818	19.9500 
251.948	0.0684	-0.0874	0.8765	-2.4170	0.5988	7.1246	19.9500 
251.969	0.1089	-0.0708	0.9219	-2.3840	0.5054	7.2180	19.9400 
251.991	0.1274	-0.0762	0.9473	-2.4115	0.4449	7.2784	19.9300 
252.012	0.1172	-0.0356	1.0005	-2.4719	0.4504	7.2675	19.9400 
252.118	0.1250	-0.0137	1.0249	-2.5159	0.4559	7.2729	19.9300 
252.131	0.1401	0.0244	1.0596	-2.5378	0.4340	7.3444	19.9100 
252.131	0.1494	0.0303	1.0532	-2.5323	0.3845	7.4872	19.9300 
252.131	0.1509	-0.0137	1.0195	-2.5378	0.3351	7.6740	19.9400 
252.131	0.1382	-0.0308	1.0337	-2.5873	0.3076	7.8442	19.9300 
252.131	0.1392	-0.0093	1.0396	-2.6422	0.3021	8.0145	19.9200 
252.152	0.1460	0.0273	1.0439	-2.6917	0.3296	8.1903	19.9100 
252.174	0.1660	0.0371	1.0313	-2.7356	0.3680	8.4155	19.9200 
252.185	0.1738	0.0591	1.0293	-2.7246	0.4010	8.6462	19.9200 
252.203	0.1763	0.0732	1.0327	-2.6697	0.4449	8.8605	19.9200 
252.224	0.1777	0.0645	1.0376	-2.6147	0.5164	9.0308	19.9100 
252.330	0.1694	0.0586	1.0347	-2.5598	0.5988	9.1681	19.9100 
252.344	0.1563	0.0498	1.0386	-2.4939	0.7031	9.3109	19.9200 
252.344	0.1289	0.0156	1.0366	-2.4005	0.8295	9.4922	19.9100 
252.345	0.1128	-0.0020	1.0586	-2.2961	0.9778	9.7119	19.9300 
252.345	0.0796	-0.0068	1.1611	-2.2137	1.1865	9.9481	19.9200 
252.353	0.0635	0.0488	1.2036	-2.1259	1.4832	10.1294	19.9100 
252.365	0.0322	0.0508	1.2813	-2.0709	1.8018	10.3052	19.9200 
252.485	0.0308	0.0776	1.2939	-2.0325	2.0874	10.4535	19.9000 
252.491	-0.0234	0.0220	1.0493	-1.9391	2.2742	10.6073	19.9000 
252.491	-0.1084	-0.1309	0.9385	-1.9501	2.5433	10.6238	19.9000 
252.491	-0.2505	-0.2261	0.9639	-1.9995	2.8784	10.4919	19.8900 
252.491	-0.2661	-0.2378	1.0322	-2.0599	3.1146	10.4974	19.8900 
252.491	-0.1958	-0.1943	1.1069	-2.3016	3.2739	10.6952	19.9000 
252.501	-0.0737	-0.1455	1.1396	-2.6697	3.3838	10.9808	19.9000 
252.521	-0.0322	-0.0938	1.1265	-2.9938	3.4717	11.2390	19.8900 
252.543	-0.0054	-0.0254	1.0024	-3.1970	3.5101	11.3873	19.8800 
252.564	-0.0151	-0.0327	0.9424	-3.3398	3.5046	11.4038	19.8800 
252.584	-0.0635	-0.0752	0.9106	-3.4442	3.4717	11.2830	19.8800 
252.692	-0.0864	-0.0986	0.9214	-3.5101	3.4113	11.0742	19.8800 
252.704	-0.0786	-0.0942	0.9258	-3.5321	3.3014	10.8710	19.8800 
252.704	-0.0610	-0.0625	0.9180	-3.5156	3.1696	10.7062	19.8900 
252.704	-0.0303	-0.0356	0.9209	-3.4662	3.0322	10.5798	19.8500 
252.704	-0.0215	-0.0288	0.9229	-3.4003	2.9388	10.4535	19.8800 
252.710	-0.0376	-0.0107	0.9404	-3.3289	2.8949	10.2997	19.8700 
252.726	-0.0513	0.0044	0.9658	-3.2574	2.8784	10.1239	19.8800 
252.747	-0.0361	0.0088	1.0210	-3.2465	2.8674	9.9316	19.8700 
252.771	-0.0137	0.0342	1.0088	-3.2739	2.8455	9.7449	19.8600 
252.780	-0.0137	0.0479	0.9985	-3.3618	2.8784	9.5142	19.8700 
252.896	-0.0142	0.0732	0.9546	-3.4662	2.9224	9.2395	19.8700 
252.909	-0.0317	0.0518	0.9414	-3.5431	2.9443	8.9484	19.8700 
252.909	-0.0361	0.0322	0.9487	-3.5815	2.9169	8.6627	19.8600 
252.909	-0.0566	0.0381	1.0093	-3.5870	2.8564	8.3661	19.8700 
252.909	-0.0522	0.0327	1.0557	-3.5815	2.7686	8.0914	19.8600 
252.909	-0.0337	0.0352	1.1035	-3.5541	2.6477	7.8552	19.8500 
252.929	-0.0381	0.0684	1.0947	-3.4552	2.5104	7.6740	19.8600 
252.940	-0.0293	0.1035	1.0679	-3.3289	2.3895	7.5421	19.8500 
252.960	-0.0239	0.1152	1.0542	-3.2245	2.2742	7.4323	19.8500 
252.979	-0.0166	0.1357	1.0229	-3.1586	2.1423	7.3169	19.8600 
252.999	-0.0181	0.1304	1.0220	-3.1476	1.9995	7.1466	19.8600 
253.100	0.0107	0.0708	1.1030	-3.1860	1.8073	6.8774	19.8400 
253.113	0.0659	0.0317	1.1851	-3.2135	1.4996	6.5204	19.8400 
253.113	0.0752	-0.0166	1.2417	-3.1531	1.1096	6.1084	19.8400 
253.113	0.0908	-0.0493	1.2378	-3.0322	0.7141	5.7074	19.8400 
253.113	0.1626	-0.1567	1.1279	-2.7795	0.2417	5.5481	19.8500 
253.120	0.2061	-0.2056	1.1196	-2.5214	-0.2252	5.6195	19.8300 
253.141	0.2510	-0.2227	1.0654	-2.3676	-0.6537	5.7788	19.8300 
253.157	0.2236	-0.2456	1.0698	-2.4609	-0.8899	5.7129	19.8300 
253.178	0.0942	-0.2427	1.1680	-2.6312	-0.9558	5.4163	19.8300 
253.201	0.0454	-0.1860	1.1587	-2.7081	-0.9943	5.1031	19.8200 
253.308	0.0513	-0.0903	1.0347	-2.7576	-0.9888	4.9219	19.8200 
253.322	0.0737	-0.0781	0.9092	-2.7850	-0.9338	4.8779	19.8200 
253.322	0.1045	-0.1279	0.8013	-2.7960	-0.8569	5.0427	19.8200 
253.323	0.0957	-0.1240	0.8232	-2.8180	-0.7086	5.1636	19.8000 
253.323	0.0850	-0.1084	0.9141	-2.8125	-0.5493	5.1636	19.8100 
253.329	0.0977	-0.1055	0.9604	-2.7740	-0.4449	5.1526	19.8200 
253.344	0.1284	-0.0386	1.0049	-2.7136	-0.3735	5.2020	19.7900 
253.369	0.1602	-0.0010	1.0005	-2.6312	-0.3296	5.3229	19.8000 
253.389	0.1777	0.0093	1.0039	-2.5653	-0.3076	5.5096	19.8000 
253.397	0.1807	0.0190	0.9883	-2.4994	-0.3076	5.6964	19.8100 
253.417	0.1685	0.0332	1.0034	-2.4445	-0.2911	5.8337	19.7800 
253.539	0.1436	0.0146	1.0298	-2.4225	-0.2637	5.9766	19.7700 
253.546	0.1270	0.0151	1.0386	-2.4554	-0.2142	6.1139	19.7700 
253.546	0.1211	0.0010	1.0444	-2.5049	-0.1648	6.3116	19.7600 
253.546	0.1265	0.0122	1.0444	-2.5488	-0.0989	6.5643	19.7700 
253.546	0.1465	0.0171	1.0171	-2.5818	-0.0330	6.8829	19.7700 
253.546	0.1528	0.0288	0.9941	-2.6038	0.0549	7.1906	19.7700 
253.556	0.1445	0.0337	0.9731	-2.6093	0.1703	7.4927	19.7600 
253.575	0.1313	0.0400	0.9849	-2.5818	0.2966	7.7838	19.7400 
253.599	0.1274	0.0625	0.9839	-2.4884	0.4010	8.1024	19.7400 
253.621	0.1372	0.0942	0.9712	-2.3401	0.4889	8.4760	19.7400 
253.642	0.1772	0.0991	0.9707	-2.1863	0.5548	8.8879	19.7300 
253.765	0.1802	0.0947	1.0103	-2.0544	0.6317	9.2725	19.7300 
253.780	0.1538	0.0464	1.0962	-1.9446	0.7251	9.5801	19.7000 
253.780	0.1021	-0.0464	1.2026	-1.9061	0.8679	9.7833	19.7300 
253.780	0.0337	-0.0049	1.3818	-1.8677	1.1261	9.8053	19.7100 
253.780	0.0103	0.0435	1.3301	-1.6864	1.3733	9.8712	19.7100 
253.780	-0.0317	0.0962	1.2412	-1.4227	1.5875	10.0195	19.7100 
253.788	-0.0371	0.0859	1.0894	-1.1096	1.6644	10.2283	19.7000 
253.802	-0.0581	-0.1211	0.9644	-0.9833	1.6534	10.4095	19.7000 
253.824	-0.1152	-0.1968	0.9863	-0.9998	1.6589	10.4315	19.6800 
253.937	-0.1753	-0.1606	1.0605	-1.1371	1.7139	10.2393	19.6700 
253.950	-0.1670	-0.1558	1.0933	-1.3403	1.7468	10.1404	19.7000 
253.950	-0.0620	-0.1504	1.0625	-1.6479	1.7249	10.3052	19.7200 
253.951	0.0083	-0.1230	1.0410	-1.9995	1.6644	10.5688	19.7000 
253.951	0.0610	-0.0898	0.9756	-2.3071	1.5436	10.8105	19.6800 
253.951	0.0430	-0.0933	0.9502	-2.5159	1.3898	10.9808	19.6700 
253.958	-0.0225	-0.0747	0.9536	-2.6202	1.2689	11.0303	19.6700 
253.973	-0.0317	-0.0601	0.9570	-2.6642	1.1975	11.0413	19.6700 
253.993	-0.0005	-0.0288	0.9575	-2.7081	1.1536	11.0632	19.6700 
254.015	0.0264	-0.0020	0.9604	-2.7411	1.1316	11.0797	19.6800 
254.039	0.0415	0.0132	0.9404	-2.7740	1.1206	11.0358	19.6800 
254.148	0.0176	-0.0083	0.9541	-2.8125	1.1646	10.9149	19.6700 
254.162	-0.0239	-0.0371	0.9839	-2.8729	1.2305	10.7117	19.6600 
254.162	-0.0293	-0.0288	0.9893	-2.9333	1.3019	10.4865	19.6800 
254.162	0.0015	-0.0024	0.9707	-3.0048	1.3678	10.2722	19.6700 
254.162	0.0093	0.0103	0.9600	-3.0597	1.4227	10.0854	19.6600 
254.162	0.0000	0.0269	0.9800	-3.0762	1.4777	9.8822	19.6700 
254.180	-0.0054	0.0322	1.0073	-3.0817	1.5106	9.6515	19.6700 
254.203	-0.0200	0.0474	1.0269	-3.0597	1.5381	9.3988	19.6500 
254.211	-0.0200	0.0693	1.0215	-3.0322	1.5820	9.1296	19.6800 
254.231	-0.0122	0.0864	1.0171	-3.0212	1.6425	8.8550	19.6700 
254.252	-0.0078	0.0938	1.0078	-3.0048	1.7029	8.5858	19.6600 
254.356	-0.0142	0.1001	0.9961	-2.9773	1.7468	8.3331	19.6600 
254.369	-0.0273	0.0840	1.0068	-2.9608	1.7798	8.0804	19.6600 
254.369	-0.0356	0.0605	1.0391	-2.9498	1.7688	7.8387	19.6600 
254.369	-0.0361	0.0718	1.0352	-2.9443	1.7194	7.6135	19.6500 
254.369	-0.0239	0.0894	1.0171	-2.9388	1.6315	7.4158	19.6300 
254.376	0.0146	0.0698	1.0557	-2.9498	1.5161	7.2400	19.6400 
254.391	0.0410	0.0249	1.1519	-2.9828	1.3403	7.0752	19.6500 
254.413	0.0601	0.0142	1.2349	-2.9443	1.0931	6.8884	19.6400 
254.436	0.0708	-0.0376	1.2734	-2.8784	0.8185	6.6687	19.6300 
254.456	0.1133	-0.1011	1.2261	-2.7466	0.4779	6.5149	19.6400 
254.569	0.1162	-0.0996	1.1211	-2.4939	0.0989	6.4984	19.6600 
254.581	0.1240	-0.1289	1.0645	-2.2467	-0.2142	6.6193	19.6300 
254.582	0.1445	-0.1870	1.0820	-2.1863	-0.4120	6.8060	19.6400 
254.582	0.1509	-0.2153	1.0947	-2.2247	-0.5328	6.8994	19.6400 
254.582	0.1201	-0.2251	1.0933	-2.2852	-0.5658	6.8829	19.6200 
254.582	0.0688	-0.1890	1.1123	-2.4060	-0.4944	6.7676	19.6300 
254.589	0.0513	-0.1357	1.0747	-2.5433	-0.3625	6.6522	19.6100 
254.609	0.0537	-0.1089	0.9883	-2.6917	-0.1978	6.6248	19.6200 
254.725	0.0640	-0.0947	0.9429	-2.7960	-0.0330	6.6522	19.6200 
254.732	0.0781	-0.0615	0.8896	-2.8345	0.1099	6.7181	19.6000 
254.732	0.0762	-0.0479	0.8857	-2.8400	0.2362	6.7511	19.6200 
254.732	0.0537	-0.1021	0.9224	-2.8345	0.3296	6.7456	19.6100 
254.733	0.0366	-0.1260	0.9585	-2.8290	0.3955	6.7181	19.6200 
254.733	0.0508	-0.1016	0.9707	-2.7960	0.4120	6.7346	19.6200 
254.760	0.0718	-0.0708	0.9658	-2.7521	0.4010	6.8170	19.6300 
254.768	0.1060	-0.0317	0.9766	-2.7081	0.3516	6.9818	19.6100 
254.789	0.1060	-0.0332	0.9766	-2.6642	0.2911	7.1741	19.6100 
254.810	0.0845	-0.0010	1.0063	-2.6147	0.2747	7.3444	19.6200 
254.830	0.0977	0.0142	1.0024	-2.5763	0.2527	7.5092	19.6300 
254.933	0.1270	-0.0063	1.0186	-2.5873	0.2417	7.7014	19.5900 
254.944	0.1377	-0.0171	1.0303	-2.6422	0.2637	7.8992	19.6000 
254.944	0.1362	0.0005	1.0547	-2.6752	0.3406	8.0859	19.6200 
254.944	0.1294	0.0322	1.0547	-2.6587	0.4285	8.2892	19.6200 
254.944	0.1465	0.0488	1.0425	-2.6147	0.5054	8.4979	19.5900 
254.950	0.1484	0.0415	1.0391	-2.5763	0.5768	8.7177	19.5900 
254.968	0.1479	0.0601	1.0405	-2.5214	0.6372	8.9154	19.5900 
254.992	0.1392	0.0737	1.0415	-2.4500	0.7031	9.1241	19.5800 
255.012	0.1406	0.0757	1.0405	-2.3730	0.7635	9.3549	19.5800 
255.036	0.1470	0.1001	1.0337	-2.2687	0.8020	9.6075	19.6000 
255.139	0.1641	0.1030	1.0093	-2.1423	0.8240	9.8987	19.5800 
255.152	0.1553	0.0825	1.0015	-2.0270	0.8569	10.1843	19.5800 
255.152	0.1104	0.0049	1.0552	-1.9501	0.9668	10.4315	19.5700 
255.152	0.0640	-0.0342	1.1621	-1.9116	1.1646	10.6073	19.5600 
255.153	0.0342	0.0098	1.2764	-1.8402	1.4117	10.7446	19.5600 
255.159	0.0361	0.0313	1.2739	-1.7139	1.6150	10.9424	19.5700 
255.172	0.0112	0.0732	1.1606	-1.5326	1.7853	11.1676	19.5600 
255.186	-0.0137	0.0581	1.0352	-1.3513	1.9446	11.3324	19.5800 
255.205	-0.0840	-0.1201	0.9453	-1.2634	2.0929	11.4093	19.5600 
255.225	-0.1572	-0.1992	0.9829	-1.2469	2.2192	11.4148	19.5700 
255.246	-0.1904	-0.1548	1.0425	-1.2579	2.3236	11.4313	19.5700 
255.370	-0.1606	-0.1045	1.0679	-1.3788	2.4335	11.5302	19.5600 
255.377	-0.1035	-0.0815	1.0693	-1.6095	2.5159	11.7169	19.5600 
255.377	-0.0210	-0.0601	1.0640	-1.8787	2.5543	11.9147	19.5600 
255.377	0.0103	-0.0347	1.0020	-2.0874	2.5214	12.0575	19.5600 
255.377	0.0146	-0.0161	0.9287	-2.2137	2.4390	12.1069	19.5400 
255.377	-0.0034	-0.0332	0.9150	-2.3016	2.3181	12.0740	19.5500 
255.384	-0.0225	-0.0405	0.9414	-2.3511	2.1973	11.9861	19.5200 
255.406	-0.0254	-0.0361	0.9492	-2.3840	2.0984	11.8872	19.5400 
255.428	-0.0210	-0.0142	0.9600	-2.4005	2.0160	11.7773	19.5300 
255.448	-0.0156	0.0068	0.9673	-2.4060	1.9501	11.6510	19.5400 
255.470	0.0063	0.0298	0.9629	-2.4170	1.8732	11.4807	19.5400 
255.575	0.0034	0.0293	0.9595	-2.4335	1.7908	11.2610	19.5500 
255.592	-0.0151	0.0151	0.9585	-2.4609	1.7249	11.0193	19.5300 
255.592	-0.0278	0.0098	0.9673	-2.5049	1.6534	10.7886	19.5300 
255.592	-0.0132	0.0117	0.9961	-2.5763	1.5710	10.6073	19.5200 
255.592	0.0083	0.0317	0.9961	-2.6477	1.4667	10.4535	19.5300 
255.609	0.0283	0.0527	0.9966	-2.7081	1.3403	10.2832	19.5300 
255.619	0.0386	0.0859	0.9712	-2.7246	1.1865	10.1074	19.5200 
255.631	0.0371	0.0981	0.9658	-2.7026	1.0382	9.9042	19.5400 
255.654	0.0347	0.0796	0.9800	-2.7081	0.9119	9.6790	19.5500 
255.673	0.0254	0.0586	1.0342	-2.7466	0.8295	9.4043	19.5300 
255.788	0.0161	0.0488	1.0776	-2.8070	0.7635	9.1187	19.5200 
255.801	-0.0010	0.0723	1.1108	-2.8510	0.7196	8.8165	19.5200 
255.801	0.0005	0.0825	1.1099	-2.8784	0.6812	8.5364	19.5300 
255.801	0.0132	0.1123	1.0742	-2.8784	0.6372	8.3002	19.5200 
255.801	0.0151	0.1313	1.0308	-2.8345	0.5823	8.0750	19.5100 
255.801	0.0024	0.1182	1.0410	-2.7631	0.4999	7.8058	19.4900 
255.807	0.0215	0.0679	1.1611	-2.7191	0.3461	7.4872	19.5000 
255.822	0.0913	0.0688	1.2607	-2.6752	0.0769	7.1521	19.5000 
255.950	0.1016	0.0249	1.2739	-2.6807	-0.1813	6.7676	19.5100 
255.956	0.1265	-0.0859	1.1963	-2.6862	-0.4340	6.3995	19.5000 
255.956	0.1240	-0.1694	1.1646	-2.6532	-0.7196	6.1798	19.5000 
255.956	0.1772	-0.2197	1.1382	-2.6367	-0.9943	6.1139	19.5000 
255.956	0.1885	-0.2310	1.1094	-2.7081	-1.2140	6.1304	19.5000 
255.956	0.1372	-0.2402	1.0933	-2.8729	-1.2854	6.0480	19.4900 
255.962	0.0967	-0.2646	1.0718	-3.0762	-1.2964	5.8997	19.5000 
255.984	0.0601	-0.2280	1.0449	-3.3344	-1.2744	5.7239	19.4900 
256.006	0.0591	-0.1587	0.9736	-3.5760	-1.2524	5.5975	19.4900 
256.028	0.0908	-0.1187	0.9028	-3.7903	-1.2469	5.6030	19.4900 
256.048	0.1167	-0.1157	0.8970	-3.9880	-1.2524	5.6799	19.4800 
256.167	0.1509	-0.1284	0.8818	-4.1309	-1.3184	5.8173	19.4800 
256.181	0.1528	-0.1191	0.9063	-4.2297	-1.3623	5.9381	19.4700 
256.181	0.1440	-0.1084	0.9424	-4.2572	-1.4063	6.0315	19.4500 
256.181	0.1475	-0.0947	0.9683	-4.2352	-1.4667	6.1139	19.4500 
256.181	0.1655	-0.0850	0.9585	-4.1748	-1.5710	6.2512	19.4500 
256.182	0.1611	-0.0811	0.9580	-4.1199	-1.6644	6.4105	19.4400 
256.189	0.1445	-0.0630	0.9727	-4.0979	-1.7139	6.5479	19.4400 
256.203	0.1431	-0.0239	0.9897	-4.0979	-1.7249	6.6742	19.4700 
256.224	0.1582	-0.0298	1.0063	-4.1583	-1.7249	6.8390	19.4500 
256.248	0.1689	-0.0571	1.0054	-4.2682	-1.7084	7.0313	19.4400 
256.268	0.1709	-0.0840	0.9878	-4.3890	-1.6589	7.2345	19.4300 
256.377	0.1636	-0.0723	0.9956	-4.4824	-1.5710	7.4158	19.4200 
256.393	0.1665	-0.0376	1.0107	-4.4989	-1.4612	7.5861	19.4200 
256.394	0.1934	-0.0371	1.0122	-4.4604	-1.4063	7.8333	19.4100 
256.394	0.1938	-0.0449	1.0146	-4.3781	-1.3568	8.1299	19.4300 
256.394	0.1797	-0.0303	0.9790	-4.2572	-1.2634	8.4045	19.4100 
256.394	0.1616	-0.0107	0.9785	-4.1254	-1.0876	8.6407	19.4200 
256.412	0.1406	-0.0063	1.0156	-4.0100	-0.8350	8.8934	19.4200 
256.418	0.1362	0.0039	1.0522	-3.9056	-0.5383	9.1571	19.4100 
256.438	0.1694	0.0796	1.0830	-3.8177	-0.2032	9.4208	19.4100 
256.459	0.1982	0.0776	1.0737	-3.7408	0.1099	9.7064	19.4200 
256.479	0.1816	0.0591	1.0791	-3.6200	0.3680	10.0250	19.4100 
256.588	0.1455	0.0542	1.0776	-3.4113	0.5933	10.3436	19.4000 
256.604	0.1104	0.0610	1.0635	-3.0872	0.7745	10.7501	19.3900 
256.604	0.0962	0.0435	1.0806	-2.7081	0.9064	11.2775	19.3800 
256.604	0.0923	0.0005	1.2153	-2.3621	1.0052	11.8158	19.3900 
256.604	0.1016	0.0332	1.1982	-2.0105	1.0712	12.2827	19.3900 
256.610	0.0444	0.0005	1.1348	-1.6260	1.1096	12.7386	19.3800 
256.625	-0.0576	-0.0034	1.1143	-1.2744	1.2250	13.0627	19.3800 
256.638	-0.1665	-0.0444	1.0518	-1.0272	1.4063	13.2220	19.3900 
256.657	-0.2070	-0.1069	1.0898	-0.9338	1.6260	13.3539	19.3900 
256.677	-0.1421	-0.1079	1.1260	-0.9723	1.8073	13.4802	19.3800 
256.698	-0.0977	-0.0918	1.1221	-1.0107	1.8622	13.6890	19.3800 
256.817	-0.0532	-0.0801	1.0625	-1.0437	1.8073	13.9417	19.3800 
256.829	-0.0210	-0.0732	1.0151	-1.1371	1.7194	14.1669	19.3900 
256.829	-0.0059	-0.0435	0.9365	-1.2469	1.6260	14.3207	19.3800 
256.829	0.0029	-0.0190	0.8770	-1.3184	1.5161	14.3756	19.3700 
256.829	-0.0044	-0.0117	0.9092	-1.3788	1.4008	14.3372	19.3700 
256.829	-0.0112	-0.0107	0.9443	-1.3898	1.2689	14.2328	19.3800 
256.836	-0.0278	0.0171	0.9580	-1.3458	1.1426	14.0680	19.3800 
256.855	-0.0166	0.0273	0.9565	-1.2909	1.0437	13.8757	19.3800 
256.978	-0.0020	0.0317	0.9473	-1.2689	0.9668	13.6670	19.3800 
256.984	-0.0083	0.0352	0.9565	-1.2689	0.9338	13.4198	19.3800 
256.984	-0.0269	0.0435	0.9521	-1.3019	0.9503	13.1177	19.3800 
256.984	-0.0220	0.0313	0.9639	-1.3623	0.9723	12.8046	19.3700 
256.984	-0.0020	0.0181	0.9507	-1.4557	0.9778	12.5134	19.3700 
256.984	-0.0020	0.0234	0.9526	-1.5710	0.9833	12.2223	19.3700 
256.995	-0.0044	0.0215	0.9727	-1.7139	0.9998	11.9641	19.3700 
257.015	-0.0122	0.0176	0.9878	-1.8677	1.0272	11.7059	19.3800 
257.036	0.0015	0.0352	0.9971	-1.9885	1.0327	11.4587	19.3600 
257.056	0.0107	0.0698	0.9966	-2.0709	1.0162	11.2280	19.3900 
257.077	0.0303	0.1074	0.9722	-2.0764	0.9229	11.0083	19.3800 
257.185	0.0435	0.0986	1.0024	-2.0819	0.8130	10.7776	19.3600 
257.197	0.0381	0.0952	1.0322	-2.0929	0.7086	10.4974	19.3600 
257.198	0.0186	0.0933	1.0767	-2.0984	0.6207	10.1678	19.3600 
257.198	0.0068	0.1084	1.0898	-2.1039	0.5493	9.8438	19.3400 
257.198	0.0093	0.1572	1.0918	-2.0819	0.4449	9.5581	19.3600 
257.204	0.0273	0.1631	1.0820	-2.0984	0.3131	9.2780	19.3600 
257.220	0.0439	0.1436	1.0493	-2.1478	0.1648	9.0033	19.3600 
257.242	0.0425	0.1235	1.0220	-2.1808	0.0000	8.7231	19.3600 
257.262	0.0449	0.0562	1.1123	-2.2467	-0.2142	8.4540	19.3700 
257.286	0.0811	0.0342	1.2485	-2.3566	-0.4944	8.1683	19.3600 
257.402	0.1255	0.0332	1.2866	-2.4500	-0.8350	7.8827	19.3500 
257.414	0.1333	-0.0269	1.2720	-2.5818	-1.1041	7.6300	19.3500 
257.415	0.1328	-0.0991	1.1338	-2.6587	-1.2854	7.5201	19.3400 
257.415	0.1274	-0.1694	1.0254	-2.6862	-1.4392	7.5751	19.3400 
257.415	0.1431	-0.3110	0.9863	-2.7521	-1.6095	7.7728	19.3400 
257.415	0.1270	-0.3125	1.0474	-2.8400	-1.7798	7.9266	19.3500 
257.421	0.1104	-0.3682	1.2070	-3.0103	-1.8402	7.9047	19.3300 
257.436	0.0962	-0.3115	1.2847	-3.2245	-1.8237	7.7728	19.3400 
257.550	0.0752	-0.1362	1.1958	-3.3563	-1.7249	7.6410	19.3400 
257.556	0.1045	-0.0479	1.0322	-3.4497	-1.6534	7.5970	19.3500 
257.556	0.1382	-0.0244	0.9028	-3.4827	-1.6370	7.6410	19.3600 
257.556	0.1504	-0.0850	0.8018	-3.4167	-1.7468	7.7783	19.3400 
257.556	0.1045	-0.1108	0.8042	-3.3344	-1.8457	7.7893	19.3300 
257.556	0.0591	-0.1299	0.8511	-3.2355	-1.8842	7.6685	19.3300 
257.572	0.0698	-0.1528	0.9082	-3.1036	-1.9940	7.5806	19.3200 
257.591	0.1060	-0.1274	0.9395	-2.9718	-2.1753	7.6190	19.3100 
257.611	0.1748	-0.0479	0.9438	-2.8345	-2.3730	7.7289	19.3400 
257.631	0.2056	-0.0200	0.9624	-2.7466	-2.5378	7.8772	19.3400 
257.651	0.2109	-0.0200	1.0127	-2.7026	-2.6697	8.0200	19.3300 
257.751	0.2012	-0.0137	1.0459	-2.6587	-2.7686	8.1244	19.3200 
257.762	0.1948	-0.0225	1.0366	-2.6257	-2.8510	8.2397	19.3500 
257.763	0.1860	-0.0210	1.0327	-2.6312	-2.8729	8.3716	19.3300 
257.763	0.1934	0.0010	0.9980	-2.6257	-2.8510	8.5364	19.3200 
257.763	0.1978	0.0029	0.9844	-2.6147	-2.7905	8.7286	19.3200 
257.770	0.1895	0.0146	0.9814	-2.5928	-2.6917	8.9264	19.3300 
257.790	0.1855	0.0322	0.9858	-2.5323	-2.5763	9.0967	19.3500 
257.810	0.1890	0.0459	0.9873	-2.4500	-2.4500	9.3054	19.3300 
257.835	0.1870	0.0557	0.9897	-2.3566	-2.3071	9.5306	19.3400 
257.853	0.1846	0.0674	0.9917	-2.2632	-2.1368	9.7778	19.3300 
257.960	0.1836	0.0728	1.0103	-2.1698	-1.9501	10.0360	19.3100 
257.972	0.1860	0.0723	1.0273	-2.0709	-1.7523	10.3217	19.3100 
257.972	0.1885	0.0913	1.0308	-1.9611	-1.5491	10.6238	19.3300 
257.972	0.2041	0.1118	1.0288	-1.8182	-1.3513	10.9589	19.3300 
257.972	0.2065	0.1138	1.0215	-1.6589	-1.1700	11.3324	19.3000 
257.978	0.1841	0.0884	1.0073	-1.4886	-0.9723	11.7114	19.3200 
257.994	0.1504	0.0396	1.0459	-1.3403	-0.7306	12.0905	19.3000 
258.018	0.0938	-0.0269	1.1519	-1.2415	-0.4120	12.4200	19.2900 
258.039	0.0601	-0.0024	1.3247	-1.1316	-0.0769	12.7057	19.3000 
258.060	0.0337	0.0376	1.3345	-0.9283	0.1923	13.0408	19.3000 
258.164	0.0083	0.1343	1.1904	-0.6372	0.4010	13.3868	19.2800 
258.178	0.0015	0.1172	0.9922	-0.3571	0.5273	13.6780	19.3000 
258.178	-0.0537	-0.1685	0.9316	-0.3461	0.6482	13.8538	19.3000 
258.178	-0.1274	-0.2227	1.0527	-0.5054	0.8679	13.7164	19.2900 
258.178	-0.1904	-0.1792	1.0986	-0.6097	0.9888	13.5901	19.2800 
258.178	-0.1533	-0.1553	1.1143	-0.7855	1.0382	13.7000	19.2900 
258.197	-0.0425	-0.0928	1.1299	-1.0657	1.0712	13.9636	19.2900 
258.208	0.0342	-0.0415	1.0771	-1.3019	1.0107	14.2877	19.3100 
258.227	0.1021	-0.0049	0.9531	-1.4832	0.8844	14.5734	19.2800 
258.247	0.0786	0.0083	0.9092	-1.5985	0.7745	14.7162	19.2800 
258.268	0.0181	-0.0156	0.9268	-1.6864	0.6866	14.7107	19.2900 
258.384	0.0063	-0.0459	0.9595	-1.7743	0.5823	14.6777	19.2900 
258.395	0.0142	-0.0225	0.9629	-1.8402	0.4504	14.6503	19.2900 
258.396	0.0347	0.0195	0.9482	-1.8732	0.3351	14.6173	19.2800 
258.396	0.0684	0.0366	0.9092	-1.8951	0.2252	14.5898	19.2800 
258.396	0.0591	0.0352	0.9150	-1.9391	0.1593	14.4965	19.2700 
258.396	0.0303	0.0181	0.9526	-2.0380	0.1538	14.2877	19.2800 
258.418	0.0190	0.0073	0.9595	-2.1643	0.1703	14.0405	19.2800 
258.427	0.0156	0.0195	0.9453	-2.2797	0.2142	13.7878	19.2900 
258.447	0.0322	0.0273	0.9375	-2.3950	0.2582	13.5571	19.2800 
258.466	0.0439	0.0562	0.9526	-2.5104	0.3131	13.2825	19.2800 
258.487	0.0474	0.0625	0.9775	-2.6093	0.3406	12.9749	19.2900 
258.592	0.0469	0.0898	1.0083	-2.6862	0.3406	12.6178	19.2700 
258.605	0.0415	0.0977	1.0127	-2.7466	0.3296	12.2333	19.2700 
258.605	0.0420	0.0947	1.0601	-2.7960	0.3131	11.8433	19.2800 
258.605	0.0459	0.1206	1.0620	-2.8070	0.2527	11.4862	19.2800 
258.605	0.0420	0.1240	1.0557	-2.7740	0.1483	11.1346	19.2400 
258.611	0.0425	0.1025	1.0366	-2.7136	-0.0275	10.8215	19.2600 
258.627	0.0127	0.0820	1.0469	-2.6532	-0.2527	10.5194	19.2700 
258.650	0.0317	0.0659	1.1157	-2.6642	-0.4449	10.2008	19.2600 
258.670	0.1230	0.0513	1.2456	-2.7411	-0.6427	9.9042	19.2700 
258.693	0.1631	0.0488	1.2124	-2.7905	-0.9064	9.6625	19.2500 
258.800	0.1406	-0.0479	1.2905	-2.8180	-1.1481	9.4592	19.2300 
258.812	0.1616	-0.0889	1.2749	-2.8619	-1.3623	9.3109	19.2500 
258.812	0.1460	-0.0835	1.0737	-2.8345	-1.4941	9.2670	19.2400 
258.812	0.1401	-0.1519	0.9790	-2.8400	-1.4996	9.2780	19.2400 
258.812	0.1143	-0.2432	1.0195	-2.9663	-1.3788	9.2395	19.2500 
258.812	0.1045	-0.3062	1.0547	-3.1586	-1.2250	9.0747	19.2300 
258.836	0.0703	-0.2729	1.1328	-3.3838	-1.0547	8.6682	19.2400 
258.856	0.0444	-0.2417	1.2065	-3.6200	-0.8624	8.1519	19.2300 
258.864	0.0356	-0.1592	1.1484	-3.7958	-0.7141	7.7399	19.2200 
258.884	0.0459	-0.0986	1.0737	-3.8892	-0.5933	7.4597	19.2300 
258.904	0.0742	-0.0562	0.9395	-3.9111	-0.5493	7.3553	19.2500 
259.006	0.0913	-0.0718	0.8633	-3.8892	-0.5768	7.3553	19.2300 
259.019	0.0889	-0.0913	0.8281	-3.8837	-0.6427	7.3499	19.2400 
259.019	0.0825	-0.1152	0.8335	-3.9001	-0.7141	7.3114	19.2400 
259.019	0.0771	-0.1416	0.8687	-3.9606	-0.7800	7.2949	19.2400 
259.019	0.0869	-0.1641	0.9302	-4.0320	-0.8350	7.3224	19.2300 
259.025	0.1035	-0.1270	0.9653	-4.0924	-0.8789	7.3993	19.2400 
259.043	0.1396	-0.0596	0.9893	-4.1364	-0.9119	7.5366	19.2200 
259.066	0.1641	-0.0225	1.0000	-4.1693	-0.9229	7.7124	19.2100 
259.087	0.1724	-0.0239	0.9917	-4.2078	-0.9009	7.8937	19.2400 
259.107	0.1597	-0.0396	0.9912	-4.2352	-0.8240	8.0530	19.2200 
259.219	0.1362	-0.0400	1.0107	-4.2517	-0.6976	8.2013	19.2100 
259.233	0.1367	-0.0391	1.0112	-4.2517	-0.5438	8.3881	19.2000 
259.233	0.1343	-0.0439	1.0044	-4.2462	-0.3516	8.5968	19.2000 
259.233	0.1226	-0.0259	1.0068	-4.2023	-0.1099	8.8110	19.2100 
259.233	0.1392	0.0454	1.0156	-4.0814	0.1099	9.0363	19.2200 
259.234	0.1709	0.0845	1.0107	-3.9001	0.2692	9.3219	19.2100 
259.242	0.2041	0.0977	1.0073	-3.6694	0.3571	9.6350	19.2100 
259.262	0.1948	0.0864	1.0005	-3.4113	0.4285	9.9042	19.2100 
259.282	0.1108	-0.0210	1.0249	-3.1641	0.5438	10.0964	19.2100 
259.301	0.0381	-0.1284	1.0845	-2.9443	0.7196	10.2393	19.2100 
259.321	0.0063	-0.0635	1.3271	-2.7081	0.9558	10.3162	19.2100 
259.431	0.0547	0.0005	1.3369	-2.3950	1.0492	10.5579	19.2100 
259.443	0.0352	0.0684	1.2056	-1.9611	1.0382	11.0028	19.2100 
259.443	-0.0464	0.0493	1.0620	-1.4063	1.0437	11.5192	19.2000 
259.443	-0.1416	-0.0879	0.9609	-0.9778	1.1700	11.7993	19.2000 
259.443	-0.2144	-0.2104	0.9990	-0.7635	1.4667	11.8048	19.1900 
259.449	-0.2163	-0.0532	1.2368	-0.7306	1.8622	11.6565	19.2100 
259.463	-0.1138	-0.0586	1.1646	-0.8459	2.0105	11.8103	19.2200 
259.487	-0.0229	0.0059	1.1206	-1.0767	2.0435	12.0795	19.2100 
259.508	0.0166	0.0137	1.0586	-1.3568	1.9940	12.3047	19.2100 
259.530	0.0215	0.0479	0.9399	-1.6205	1.9281	12.3926	19.2000 
259.639	0.0112	0.0352	0.8560	-1.8127	1.8347	12.3816	19.2100 
259.653	-0.0415	0.0049	0.8613	-1.9940	1.7743	12.2168	19.2000 
259.653	-0.0576	-0.0356	0.8838	-2.1808	1.7029	12.0135	19.2000 
259.653	-0.0347	-0.0513	0.9077	-2.3785	1.6095	11.8378	19.2000 
259.653	-0.0249	-0.0234	0.9233	-2.5928	1.5216	11.7004	19.2100 
259.653	-0.0015	0.0234	0.9155	-2.7850	1.4282	11.5906	19.2000 
259.659	0.0200	0.0298	0.9292	-2.9663	1.2964	11.5027	19.1900 
259.679	0.0112	-0.0166	0.9668	-3.1860	1.0931	11.3928	19.2000 
259.700	-0.0068	-0.0820	1.0078	-3.4277	0.8844	11.2830	19.2100 
259.722	-0.0103	-0.0454	1.0010	-3.6200	0.6866	11.1896	19.2000 
259.744	0.0161	0.0127	0.9746	-3.7683	0.5164	11.1401	19.1900 
259.854	0.0566	0.0576	0.9355	-3.8947	0.3461	11.1346	19.2000 
259.868	0.0596	0.0469	0.9492	-4.0100	0.1703	11.1346	19.1900 
259.868	0.0464	0.0410	0.9912	-4.1144	0.0165	11.0028	19.2000 
259.868	0.0337	0.0215	1.0239	-4.2188	-0.1154	10.7556	19.2000 
259.868	0.0132	0.0142	1.0801	-4.2902	-0.2252	10.4425	19.1800 
259.868	0.0083	0.0391	1.1025	-4.3066	-0.3131	10.1404	19.1900 
259.878	0.0273	0.0796	1.1157	-4.2627	-0.3955	9.9042	19.2000 
259.898	0.0542	0.0918	1.0986	-4.1858	-0.5054	9.7339	19.1700 
260.018	0.0664	0.0859	1.0894	-4.1144	-0.6207	9.5691	19.1800 
260.025	0.0591	0.0581	1.0864	-4.0430	-0.7471	9.3823	19.1800 
260.025	0.0596	-0.0010	1.1421	-3.9935	-0.9064	9.2230	19.1700 
260.025	0.1069	-0.0317	1.2910	-4.0045	-1.1041	9.0912	19.1800 
260.025	0.1680	-0.0063	1.3203	-4.0485	-1.3019	8.9264	19.1700 
260.025	0.2314	-0.0908	1.2021	-4.0814	-1.4941	8.8879	19.1700 
260.037	0.1978	-0.1450	1.1074	-3.9661	-1.6699	8.9429	19.1600 
260.056	0.1733	-0.2441	1.0684	-3.7683	-1.8127	9.0912	19.1700 
260.077	0.1699	-0.2793	1.0869	-3.6090	-1.8842	9.2999	19.1800 
260.097	0.1528	-0.2329	1.1152	-3.5046	-1.7963	9.2889	19.1800 
260.121	0.1167	-0.2085	1.1367	-3.5156	-1.5436	9.0747	19.1900 
260.230	0.0596	-0.1455	1.1411	-3.5980	-1.1700	8.7506	19.1700 
260.243	0.0391	-0.0732	1.0859	-3.6584	-0.7965	8.4650	19.1800 
260.243	0.0693	-0.0737	0.9116	-3.6639	-0.5273	8.3826	19.1800 
260.243	0.0879	-0.0898	0.8301	-3.6584	-0.3186	8.4045	19.1700 
260.243	0.0845	-0.0903	0.8120	-3.6530	-0.1373	8.3881	19.1800 
260.243	0.0688	-0.1011	0.8555	-3.6584	0.0494	8.2947	19.1800 
260.264	0.0537	-0.0928	0.9053	-3.6255	0.2032	8.2068	19.1600 
260.286	0.0796	-0.0923	0.9116	-3.5760	0.2747	8.2068	19.1700 
260.307	0.1191	-0.0742	0.9536	-3.5486	0.2856	8.2837	19.1600 
260.318	0.1353	-0.0464	0.9600	-3.5376	0.2802	8.3936	19.1800 
260.335	0.1445	-0.0332	0.9458	-3.5706	0.2747	8.5089	19.1800 
260.434	0.1294	-0.0049	0.9834	-3.6584	0.3021	8.5858	19.1500 
260.450	0.1377	-0.0513	1.0020	-3.7848	0.3186	8.6957	19.1600 
260.450	0.1289	-0.0693	1.0342	-3.9551	0.3461	8.8385	19.1700 
260.450	0.1396	-0.0659	1.0405	-4.0869	0.3955	8.9923	19.1500 
260.450	0.1465	-0.0454	1.0278	-4.1309	0.4504	9.1846	19.1500 
260.456	0.1182	-0.0117	1.0376	-4.0924	0.5383	9.3878	19.1600 
260.474	0.1230	0.0137	1.0181	-3.9661	0.6427	9.6130	19.1600 
260.494	0.1626	0.0474	1.0039	-3.8123	0.7581	9.8712	19.1600 
260.516	0.1753	0.1050	1.0151	-3.6310	0.8734	10.0800	19.1600 
260.535	0.1816	0.1187	1.0317	-3.4332	0.9668	10.2283	19.1500 
260.643	0.1528	0.0898	1.0361	-3.2025	1.0327	10.3546	19.1500 
260.655	0.0835	0.0093	1.0298	-2.9169	1.0931	10.5029	19.1500 
260.655	0.0635	0.0010	1.0474	-2.6093	1.1755	10.6787	19.1500 
260.655	0.0747	-0.0708	1.1514	-2.3456	1.2469	10.9149	19.1600 
260.655	0.0703	0.0063	1.3013	-2.1368	1.3678	11.0907	19.1400 
260.670	0.0508	0.0674	1.3604	-1.9611	1.5381	11.2061	19.1600 
260.685	0.0088	0.1411	1.2837	-1.8677	1.7963	11.2115	19.1500 
260.695	-0.0698	0.0264	1.0244	-1.7688	2.0325	11.1566	19.1300 
260.713	-0.1206	-0.1499	0.9390	-1.8127	2.2247	11.0138	19.1500 
260.734	-0.2300	-0.2524	1.0156	-1.9556	2.4005	10.6842	19.1400 
260.853	-0.2188	-0.2261	1.0488	-2.1149	2.5543	10.3821	19.1400 
260.859	-0.1191	-0.1426	1.0815	-2.3456	2.6038	10.3821	19.1600 
260.859	-0.0356	-0.1143	1.0898	-2.6422	2.5983	10.5688	19.1500 
260.859	0.0464	-0.0747	1.0640	-2.9993	2.5488	10.7556	19.1500 
260.859	0.0518	-0.0557	1.0049	-3.2959	2.4664	10.8380	19.1600 
260.859	0.0347	-0.0562	0.9453	-3.5046	2.3730	10.7941	19.1600 
260.872	-0.0181	-0.0610	0.9302	-3.6145	2.2742	10.6677	19.1600 
260.892	-0.0410	-0.0649	0.9336	-3.6584	2.1808	10.5139	19.1500 
260.914	-0.0327	-0.0366	0.9297	-3.6475	2.0435	10.3821	19.1600 
260.935	0.0005	-0.0215	0.9287	-3.6310	1.8896	10.3162	19.1600 
260.955	0.0405	-0.0005	0.9023	-3.6145	1.7249	10.2612	19.1400 
261.061	0.0347	0.0161	0.9019	-3.6200	1.6150	10.1404	19.1400 
261.074	-0.0107	-0.0063	0.9170	-3.6584	1.5601	9.9481	19.1500 
261.074	-0.0313	-0.0430	0.9487	-3.7408	1.5820	9.7174	19.1500 
261.074	-0.0229	-0.0825	0.9702	-3.8507	1.6370	9.4867	19.1500 
261.074	-0.0288	-0.0596	0.9736	-3.9441	1.7139	9.2285	19.1600 
261.081	-0.0239	0.0161	0.9863	-3.9331	1.7798	8.9813	19.1400 
261.097	-0.0059	0.0303	0.9937	-3.8782	1.7798	8.8055	19.1600 
261.121	0.0034	0.0508	1.0024	-3.7958	1.7303	8.6792	19.1300 
261.222	0.0107	0.0708	1.0181	-3.7024	1.6644	8.5309	19.1300 
261.237	0.0244	0.1069	1.0405	-3.6090	1.5710	8.3661	19.1400 
261.237	0.0063	0.1025	1.0732	-3.4882	1.4722	8.2068	19.1400 
261.237	-0.0220	0.0933	1.1069	-3.3398	1.3678	8.0310	19.1400 
261.237	-0.0049	0.1040	1.0898	-3.1805	1.2469	7.8387	19.1300 
261.245	0.0088	0.0884	1.0708	-3.0487	1.1041	7.6685	19.1400 
261.274	0.0122	0.0547	1.1123	-2.9388	0.9393	7.5037	19.1400 
261.307	0.0522	0.0464	1.2358	-2.8510	0.6812	7.3499	19.1300 
261.336	0.0645	0.0366	1.2769	-2.7576	0.3516	7.1960	19.1400 
261.337	0.1289	-0.0693	1.3486	-2.6971	-0.0824	7.0258	19.1400 
261.355	0.1543	-0.1455	1.1709	-2.5159	-0.6647	7.0642	19.1500 
261.377	0.1001	-0.1230	1.0933	-2.4005	-0.9998	7.1191	19.1400 
261.384	0.1396	-0.1260	1.0498	-2.3840	-1.1646	7.2784	19.1400 
261.502	0.2197	-0.1265	0.9727	-2.4225	-1.2689	7.4323	19.1400 
261.517	0.1997	-0.1484	0.9951	-2.5214	-1.2524	7.3553	19.1300 
261.517	0.1006	-0.2637	1.0562	-2.6807	-1.0822	7.0587	19.1400 
261.517	0.0352	-0.2285	1.1128	-2.8180	-0.7965	6.5918	19.1300 
261.517	0.0410	-0.1528	1.0430	-2.8839	-0.6152	6.2897	19.1300 
261.517	0.0684	-0.1104	0.9946	-2.8949	-0.5273	6.2622	19.1400 
261.518	0.1050	-0.0605	0.9536	-2.9114	-0.4669	6.3831	19.1400 
261.537	0.1353	-0.0435	0.8843	-2.9663	-0.4175	6.5424	19.1400 
261.561	0.1323	-0.0454	0.8618	-3.0707	-0.3461	6.6412	19.1300 
261.659	0.1216	-0.0806	0.8652	-3.2135	-0.3021	6.7181	19.1300 
261.673	0.0859	-0.1001	0.9131	-3.3728	-0.2417	6.7017	19.1300 
261.673	0.0850	-0.0796	0.9351	-3.4937	-0.1758	6.6522	19.1200 
261.673	0.1147	-0.0703	0.9507	-3.6090	-0.1373	6.6907	19.1300 
261.673	0.1221	-0.0762	0.9888	-3.7573	-0.0604	6.7511	19.1300 
261.681	0.1206	-0.0747	1.0376	-3.9441	0.0769	6.7511	19.1200 
261.693	0.1245	-0.0610	1.0522	-4.1199	0.2142	6.7181	19.1200 
261.718	0.1226	-0.0425	1.0552	-4.2682	0.3241	6.6742	19.1200 
261.739	0.1177	-0.0776	1.0396	-4.4000	0.3955	6.6632	19.1300 
261.749	0.0928	-0.0903	1.0396	-4.4714	0.4449	6.6962	19.1300 
261.767	0.0938	-0.0415	1.0293	-4.4440	0.4889	6.7566	19.1300 
261.887	0.1406	-0.0171	0.9966	-4.3121	0.4504	6.9543	19.1100 
261.893	0.1484	0.0190	1.0146	-4.1364	0.4065	7.2070	19.1100 
261.893	0.1514	0.0488	1.0366	-3.9166	0.4065	7.3663	19.1300 
261.893	0.1606	0.0962	1.0234	-3.6584	0.4065	7.4432	19.1200 
261.893	0.1660	0.1055	0.9951	-3.3673	0.3406	7.5201	19.1200 
261.893	0.1631	0.0459	1.0000	-3.1091	0.2582	7.5916	19.1200 
261.906	0.1406	0.0010	1.0000	-2.8949	0.2142	7.6465	19.1200 
261.925	0.0952	-0.0527	1.0776	-2.7026	0.2472	7.6794	19.1000 
262.044	0.0776	-0.0361	1.1758	-2.4939	0.3625	7.6685	19.1100 
262.051	0.0791	-0.0171	1.2134	-2.2302	0.4724	7.7454	19.1300 
262.051	0.0405	-0.0342	1.2900	-1.9666	0.6372	7.8387	19.1100 
262.051	-0.0210	0.0811	1.2368	-1.6260	0.8075	7.9156	19.1100 
262.051	-0.0605	0.1040	1.1177	-1.3129	0.9833	7.9980	19.1100 
262.051	-0.1011	-0.0737	1.0034	-1.1975	1.1481	8.0859	19.1100 
262.067	-0.1436	-0.1685	1.0645	-1.2964	1.3623	8.0750	19.1000 
262.097	-0.1016	-0.1577	1.0996	-1.5381	1.5436	8.0969	19.1100 
262.130	-0.0581	-0.1050	1.0972	-1.8622	1.6809	8.2507	19.1100 
262.164	0.0103	-0.0376	1.0728	-2.2302	1.7688	8.4979	19.1100 
262.195	0.0283	-0.0161	1.0244	-2.5598	1.8073	8.7286	19.1100 
262.195	0.0190	-0.0029	0.9614	-2.7740	1.7743	8.8879	19.1200 
262.219	-0.0029	-0.0103	0.9116	-2.8839	1.7139	8.9484	19.1200 
262.241	-0.0269	-0.0259	0.8677	-2.9059	1.6370	8.9099	19.1200 
262.242	-0.0400	-0.0234	0.8745	-2.9333	1.5710	8.7946	19.1000 
262.266	-0.0435	-0.0234	0.9292	-3.0377	1.5710	8.5858	19.1100 
262.287	-0.0293	-0.0239	0.9287	-3.1805	1.5875	8.3716	19.1100 
262.310	-0.0083	-0.0288	0.9429	-3.3453	1.6205	8.1519	19.1100 
262.318	-0.0068	-0.0112	0.9795	-3.5266	1.6644	7.8772	19.1100 
262.339	-0.0190	-0.0054	0.9839	-3.7024	1.7139	7.5586	19.1100 
262.453	-0.0293	-0.0376	0.9668	-3.8452	1.7633	7.2510	19.1100 
262.466	-0.0552	-0.0352	1.0063	-3.9496	1.8237	6.9818	19.1100 
262.466	-0.0215	-0.0176	0.9980	-3.9606	1.8127	6.7731	19.0900 
262.466	0.0142	0.0576	0.9888	-3.9056	1.7578	6.5588	19.1100 
262.466	0.0127	0.0884	0.9897	-3.8013	1.7084	6.3116	19.0900 
262.466	0.0166	0.0728	1.0161	-3.7134	1.6699	6.0699	19.1000 
262.472	0.0054	0.0591	1.0444	-3.6420	1.6150	5.8118	19.1000 
262.492	-0.0063	0.0532	1.0708	-3.5651	1.5491	5.5261	19.1100 
262.511	-0.0176	0.0605	1.0625	-3.4827	1.4722	5.2350	19.0900 
262.617	-0.0220	0.0781	1.0513	-3.3948	1.3953	4.9603	19.0900 
262.630	-0.0083	0.0698	1.0625	-3.3289	1.3074	4.7076	19.0900 
262.631	0.0083	0.0630	1.0762	-3.2794	1.1810	4.4879	19.0900 
262.631	0.0166	0.0303	1.1162	-3.2355	1.0272	4.2902	19.1000 
262.631	0.0718	0.0068	1.2544	-3.2245	0.8295	4.0869	19.0700 
262.631	0.1006	0.0195	1.2563	-3.1696	0.5548	3.9056	19.0800 
262.653	0.1201	-0.0425	1.2881	-3.1366	0.2856	3.7079	19.0900 
262.673	0.1284	-0.0674	1.2139	-3.0762	0.0275	3.5651	19.0800 
262.779	0.1553	-0.0850	1.0361	-2.9828	-0.1263	3.5156	19.0900 
262.792	0.1514	-0.1143	0.9336	-2.8949	-0.1923	3.5486	19.0700 
262.793	0.1392	-0.1265	0.9507	-2.8235	-0.1373	3.4772	19.0700 
262.793	0.1475	-0.1914	0.9800	-2.8070	-0.0714	3.3508	19.0700 
262.793	0.1270	-0.2759	1.0361	-2.9114	0.0494	3.1036	19.0800 
262.793	0.0420	-0.2197	1.1890	-3.0432	0.2802	2.7136	19.0600 
262.800	0.0342	-0.1724	1.1318	-3.1146	0.4504	2.5159	19.0700 
262.820	0.0581	-0.0874	1.0278	-3.2190	0.6262	2.4500	19.0700 
262.942	0.0884	-0.0610	0.9595	-3.3289	0.7800	2.4609	19.0700 
262.949	0.0972	-0.0576	0.8735	-3.4222	0.9119	2.4994	19.0600 
262.949	0.0884	-0.0566	0.8540	-3.4991	1.0272	2.5378	19.0600 
262.949	0.0718	-0.0640	0.8594	-3.5651	1.1041	2.5598	19.0600 
262.949	0.0693	-0.0845	0.8804	-3.6255	1.1481	2.6038	19.0600 
262.949	0.0859	-0.0845	0.8975	-3.6420	1.1536	2.7026	19.0600 
262.960	0.0967	-0.0762	0.9243	-3.6310	1.1591	2.8619	19.0800 
262.980	0.1250	-0.0605	0.9932	-3.6475	1.1920	3.0377	19.0700 
263.099	0.1470	-0.0322	1.0205	-3.6859	1.2469	3.2135	19.0700 
263.105	0.1504	-0.0010	1.0234	-3.7354	1.3074	3.3838	19.0700 
263.105	0.1421	-0.0020	1.0127	-3.8068	1.3843	3.5431	19.0700 
263.105	0.1313	-0.0186	0.9839	-3.8782	1.4832	3.7134	19.0600 
263.105	0.1152	-0.0552	0.9712	-3.9331	1.5930	3.9056	19.0500 
263.105	0.0898	-0.0444	1.0557	-3.9441	1.7798	4.0924	19.0400 
263.119	0.0981	-0.0239	1.1025	-3.9166	1.9501	4.3506	19.0700 
263.139	0.1455	0.0537	1.1113	-3.8342	2.0709	4.6747	19.0500 
263.267	0.1772	0.0952	1.0933	-3.7463	2.1918	4.9878	19.0700 
263.273	0.1714	0.0884	1.0674	-3.6475	2.2961	5.2679	19.0500 
263.273	0.1563	0.0498	1.0400	-3.5486	2.3566	5.5206	19.0500 
263.273	0.0908	-0.0552	1.0630	-3.4717	2.4445	5.7404	19.0400 
263.273	0.0278	-0.1323	1.1450	-3.4003	2.5598	5.9546	19.0500 
263.273	-0.0005	-0.0806	1.3086	-3.2739	2.6697	6.1688	19.0500 
263.279	0.0313	0.0010	1.3252	-3.0652	2.7301	6.4819	19.0600 
263.303	0.0342	0.0396	1.2954	-2.8784	2.8345	6.7950	19.0400 
263.324	0.0142	0.0449	1.1201	-2.6807	2.9828	6.9873	19.0400 
263.347	-0.1270	-0.1260	0.9453	-2.5763	3.3234	6.9763	19.0400 
263.369	-0.2212	-0.2412	0.8975	-2.5214	3.7738	6.7621	19.0300 
263.480	-0.2754	-0.2095	1.0391	-2.4335	4.2078	6.6138	19.0300 
263.492	-0.1841	-0.1309	1.0610	-2.3840	4.4440	6.8170	19.0200 
263.492	-0.0698	-0.0273	1.0586	-2.3566	4.5538	7.1686	19.0500 
263.493	-0.0171	0.0000	1.0483	-2.3950	4.5923	7.4542	19.0400 
263.493	-0.0303	0.0024	0.9824	-2.4390	4.5758	7.5861	19.0400 
263.493	-0.0747	-0.0098	0.9302	-2.4664	4.5813	7.5696	19.0200 
263.500	-0.1196	-0.0483	0.8784	-2.4829	4.6033	7.4652	19.0300 
263.518	-0.1294	-0.0464	0.8853	-2.4445	4.6033	7.3773	19.0300 
263.541	-0.0879	-0.0220	0.9053	-2.3950	4.5593	7.3499	19.0300 
263.561	-0.0605	0.0181	0.8945	-2.3401	4.4824	7.3444	19.0400 
263.584	-0.0396	0.0430	0.8960	-2.3016	4.4165	7.2949	19.0400 
263.690	-0.0444	0.0254	0.9248	-2.3291	4.3835	7.1686	19.0400 
263.703	-0.0776	-0.0068	0.9854	-2.4390	4.4000	6.9324	19.0200 
263.703	-0.0938	-0.0059	1.0073	-2.5543	4.4000	6.6852	19.0400 
263.703	-0.0879	0.0190	1.0322	-2.6312	4.3726	6.5424	19.0200 
263.703	-0.0610	0.0283	1.0366	-2.7136	4.3286	6.4819	19.0300 
263.703	-0.0234	0.0415	1.0054	-2.8180	4.2462	6.4600	19.0200 
263.724	-0.0122	0.0669	0.9326	-2.8839	4.1693	6.4270	19.0300 
263.747	-0.0220	0.0923	0.9302	-2.8839	4.0924	6.3666	19.0400 
263.756	-0.0269	0.1138	0.9634	-2.8400	3.9990	6.3007	19.0300 
263.775	-0.0186	0.0981	0.9858	-2.7960	3.8617	6.2292	19.0200 
263.796	-0.0200	0.1011	1.0249	-2.7795	3.7354	6.0974	19.0400 
263.897	-0.0361	0.1348	1.0610	-2.7850	3.6694	5.8502	19.0100 
263.909	-0.0391	0.1626	1.0605	-2.7740	3.5980	5.5536	19.0200 
263.909	-0.0425	0.1426	1.0488	-2.7466	3.4991	5.2679	19.0300 
263.910	-0.0674	0.1270	1.0444	-2.6971	3.4003	4.9713	19.0200 
263.910	-0.0776	0.1357	1.0439	-2.6367	3.2739	4.6692	19.0300 
263.916	-0.0508	0.1431	1.0889	-2.6038	3.1091	4.3671	19.0300 
263.934	-0.0049	0.0918	1.1558	-2.6532	2.8729	4.0375	19.0300 
263.955	0.0708	-0.0156	1.1978	-2.7631	2.5818	3.6420	19.0200 
263.976	0.0522	-0.0850	1.2612	-2.8839	2.3621	3.2080	19.0400 
263.995	0.1084	-0.1738	1.2471	-2.9059	2.0984	2.8784	19.0300 
264.101	0.1563	-0.2271	1.2305	-2.8180	1.7249	2.7521	19.0200 
264.114	0.1738	-0.2632	1.1572	-2.6587	1.3293	2.8290	19.0300 
264.114	0.1382	-0.2544	1.1655	-2.5653	1.1151	2.8949	19.0200 
264.114	0.0508	-0.2847	1.1650	-2.6202	1.1316	2.8949	19.0200 
264.115	-0.0068	-0.2749	1.1421	-2.7301	1.2689	2.8180	19.0300 
264.121	-0.0225	-0.1567	1.0581	-2.9114	1.4886	2.7136	19.0200 
264.136	0.0132	-0.1167	0.9644	-3.0872	1.6919	2.7246	19.0200 
264.158	0.0601	-0.0986	0.9019	-3.2520	1.8402	2.8619	19.0100 
264.180	0.0679	-0.0977	0.8652	-3.3453	1.8951	3.0267	19.0300 
264.203	0.0547	-0.1104	0.8545	-3.3893	1.9116	3.1531	19.0200 
264.316	0.0405	-0.1079	0.8799	-3.3838	1.9006	3.2410	19.0200 
264.330	0.0542	-0.0688	0.9404	-3.3289	1.8292	3.3344	19.0100 
264.330	0.0771	-0.0503	0.9277	-3.2574	1.6864	3.4991	19.0100 
264.330	0.1064	-0.0205	0.9248	-3.1860	1.5106	3.7079	19.0000 
264.331	0.1089	-0.0298	0.9458	-3.1860	1.3239	3.9331	19.0000 
264.331	0.1055	-0.0493	0.9980	-3.2629	1.1646	4.1254	19.0200 
264.337	0.1011	-0.0327	1.0151	-3.3893	1.0162	4.2847	19.0200 
264.352	0.1016	-0.0254	1.0190	-3.5431	0.8899	4.4769	19.0100 
264.478	0.1108	-0.0601	1.0156	-3.7463	0.7855	4.7241	19.0000 
264.484	0.1284	-0.0610	1.0161	-3.9716	0.7306	4.9823	19.0100 
264.484	0.1382	-0.0591	1.0029	-4.1638	0.7086	5.2844	19.0000 
264.484	0.1289	-0.0503	0.9932	-4.2957	0.7251	5.6250	19.0000 
264.484	0.1240	-0.0488	0.9839	-4.3671	0.7690	5.9875	19.0000 
264.484	0.1133	-0.0479	1.0010	-4.4000	0.8899	6.3446	19.0000 
264.491	0.1216	-0.0342	0.9956	-4.3945	1.0876	6.6907	19.0000 
264.517	0.1357	0.0171	1.0088	-4.3286	1.3458	7.0587	18.9900 
264.535	0.1455	0.0547	1.0322	-4.2352	1.6260	7.4652	18.9800 
264.556	0.1646	0.1162	1.0703	-4.1034	1.9171	7.8662	19.0000 
264.579	0.1636	0.0806	1.0635	-3.9221	2.1478	8.2837	18.9900 
264.686	0.1104	-0.0337	1.0498	-3.6859	2.3016	8.7286	19.0000 
264.698	0.0205	-0.1260	1.1162	-3.4772	2.5104	9.1406	19.0000 
264.698	-0.0483	-0.0859	1.2959	-3.2959	2.7850	9.4977	18.9900 
264.698	-0.0190	0.0005	1.3408	-3.0377	2.9004	10.0360	18.9800 
264.698	-0.0020	0.0483	1.3130	-2.7960	2.9993	10.5963	18.9900 
264.698	-0.0190	0.0391	1.0410	-2.4829	3.0817	11.0742	18.9900 
264.720	-0.0684	-0.1226	0.9043	-2.2137	3.1146	11.5192	18.9900 
264.730	-0.2104	-0.2524	1.0278	-1.9885	3.1366	11.8762	19.0000 
264.750	-0.1855	-0.1650	1.1299	-1.8457	3.1476	12.1948	18.9800 
264.769	-0.1074	-0.0645	1.1406	-1.8292	3.1860	12.5244	18.9900 
264.792	-0.0522	-0.0322	1.1250	-1.8567	3.2245	12.8815	18.9900 
264.899	-0.0049	0.0161	1.0835	-1.8787	3.1915	13.1671	18.9900 
264.914	0.0244	0.0444	1.0103	-1.8732	3.0817	13.3484	18.9700 
264.914	0.0415	0.0620	0.9009	-1.8787	2.9498	13.3923	18.9800 
264.914	0.0166	0.0640	0.8882	-1.8896	2.7850	13.3319	18.9700 
264.914	-0.0117	0.0005	0.8750	-1.8842	2.5708	13.2770	18.9700 
264.920	-0.0288	-0.0234	0.9048	-1.9226	2.3840	13.1836	18.9700 
264.935	-0.0400	-0.0083	0.9502	-2.0105	2.2742	13.0353	18.9700 
264.956	-0.0059	-0.0010	0.9414	-2.1313	2.1918	12.8925	18.9500 
264.982	0.0190	0.0063	0.9243	-2.2906	2.1808	12.7167	18.9600 
264.989	0.0176	0.0220	0.9248	-2.4170	2.1918	12.4969	18.9400 
265.008	-0.0146	0.0244	0.9453	-2.4884	2.1643	12.2662	18.9600 
265.117	-0.0254	0.0127	0.9668	-2.5653	2.1478	12.0300	18.9600 
265.131	-0.0430	0.0137	0.9629	-2.6477	2.1643	11.7828	18.9600 
265.131	-0.0513	0.0288	0.9556	-2.7301	2.2083	11.5247	18.9500 
265.131	-0.0283	0.0547	0.9492	-2.8180	2.2192	11.2390	18.9400 
265.131	-0.0103	0.0703	0.9604	-2.9279	2.2028	10.8929	18.9500 
265.137	-0.0015	0.0518	1.0107	-3.0652	2.1423	10.4755	18.9400 
265.154	-0.0186	0.0435	1.0508	-3.1750	2.0325	10.0195	18.9500 
265.175	-0.0508	0.0273	1.1074	-3.2465	1.8896	9.5636	18.9500 
265.194	-0.0542	0.0273	1.1157	-3.2684	1.7139	9.1516	18.9400 
265.218	-0.0298	0.0615	1.1113	-3.2520	1.5051	8.8220	18.9300 
265.332	0.0005	0.0850	1.1045	-3.2245	1.2854	8.5419	18.9400 
265.344	0.0752	0.0767	1.2017	-3.2794	1.0382	8.2288	18.9600 
265.345	0.1172	0.0576	1.2295	-3.3344	0.7031	7.8772	18.9400 
265.345	0.0947	-0.0918	1.3159	-3.3728	0.3516	7.4927	18.9400 
265.345	0.1050	-0.1357	1.3281	-3.4277	0.0604	7.0862	18.9500 
265.345	0.1450	-0.1313	1.1860	-3.4058	-0.1758	6.7731	18.9500 
265.351	0.1860	-0.1206	1.0557	-3.2959	-0.4504	6.6467	18.9300 
265.368	0.1968	-0.2412	0.9609	-3.1750	-0.7910	6.7621	18.9600 
265.485	0.1592	-0.3140	1.0278	-3.1860	-1.0437	6.8390	18.9300 
265.491	0.0522	-0.3257	1.1416	-3.2904	-1.0986	6.6907	18.9400 
265.491	0.0142	-0.2568	1.1406	-3.3783	-0.9943	6.4435	18.9400 
265.491	0.0376	-0.1172	1.0625	-3.4991	-0.7855	6.2402	18.9400 
265.491	0.0840	-0.0903	0.9653	-3.6420	-0.5878	6.1963	18.9500 
265.492	0.1172	-0.1045	0.8579	-3.7738	-0.4669	6.3062	18.9400 
265.504	0.1143	-0.1035	0.8257	-3.8507	-0.3735	6.4270	18.9300 
265.524	0.0791	-0.0889	0.8647	-3.8782	-0.2747	6.4600	18.9300 
265.544	0.0737	-0.1113	0.8960	-3.8782	-0.1923	6.4709	18.9300 
265.566	0.0811	-0.1318	0.9272	-3.8672	-0.1538	6.5094	18.9400 
265.586	0.0928	-0.1177	0.9521	-3.8068	-0.1483	6.5698	18.9300 
265.693	0.1060	-0.0874	0.9526	-3.6969	-0.1703	6.6522	18.9500 
265.708	0.1216	-0.0459	0.9736	-3.5706	-0.2142	6.7786	18.9300 
265.708	0.1372	-0.0420	0.9990	-3.4442	-0.3021	6.9543	18.9300 
265.709	0.1475	-0.0127	1.0244	-3.2959	-0.4340	7.1576	18.9200 
265.709	0.1528	-0.0127	1.0298	-3.1641	-0.5768	7.4158	18.9100 
265.728	0.1567	-0.0259	1.0220	-3.0981	-0.6647	7.7124	18.9300 
265.742	0.1504	-0.0171	1.0010	-3.0652	-0.6757	8.0090	18.9300 
265.748	0.1592	0.0015	0.9883	-3.0487	-0.6262	8.3167	18.9200 
265.768	0.1680	0.0186	0.9897	-2.9993	-0.5548	8.6407	18.9100 
265.787	0.1572	0.0400	0.9790	-2.9114	-0.4669	8.9484	18.9300 
265.901	0.1445	0.0571	0.9873	-2.7905	-0.3625	9.2120	18.9300 
265.916	0.1450	0.0664	1.0127	-2.6367	-0.2692	9.4647	18.9300 
265.916	0.1558	0.0806	1.0225	-2.4554	-0.2087	9.7284	18.9300 
265.916	0.1758	0.1069	1.0488	-2.2467	-0.1703	10.0195	18.9300 
265.916	0.1870	0.1006	1.0508	-2.0599	-0.1373	10.3381	18.9000 
265.916	0.1680	0.0913	1.0518	-1.8896	-0.0604	10.6567	18.9300 
265.934	0.1426	0.0879	1.0586	-1.7303	0.0659	10.9863	18.9300 
265.941	0.1187	0.0308	1.0752	-1.6095	0.2582	11.3708	18.9300 
265.962	0.1035	-0.0171	1.1538	-1.5326	0.4779	11.7938	18.9200 
265.982	0.0918	0.0249	1.3955	-1.4777	0.6866	12.2113	18.9300 
266.004	0.1255	0.1025	1.3950	-1.3513	0.8405	12.6508	18.9300 
266.117	0.0723	0.1392	1.2544	-1.1810	1.0657	13.0133	18.9300 
266.129	0.0112	0.1426	1.0635	-0.9888	1.3184	13.2825	18.9300 
266.130	-0.0967	-0.0869	0.8242	-0.8789	1.5491	13.4692	18.9200 
266.130	-0.1763	-0.2344	0.8721	-0.9338	1.7303	13.5736	18.9300 
266.130	-0.2007	-0.2383	1.0420	-1.1206	1.8457	13.6176	18.9300 
266.130	-0.1860	-0.1807	1.1177	-1.4063	1.9666	13.6725	18.9100 
266.153	-0.0762	-0.1050	1.1084	-1.7194	2.0709	13.9032	18.9000 
266.162	-0.0171	-0.0688	1.0767	-2.0160	2.1259	14.2548	18.9100 
266.182	0.0547	-0.0376	1.0010	-2.2632	2.0929	14.5953	18.9300 
266.202	0.0483	-0.0234	0.9570	-2.4005	1.9885	14.8590	18.9200 
266.221	0.0044	-0.0303	0.9180	-2.4280	1.8347	15.0623	18.9300 
266.337	-0.0190	-0.0322	0.9224	-2.3785	1.6589	15.2216	18.9300 
266.350	-0.0034	-0.0171	0.9395	-2.3456	1.4941	15.3259	18.9400 
266.350	0.0142	0.0117	0.9424	-2.3181	1.3568	15.3809	18.9300 
266.350	0.0430	0.0303	0.9292	-2.2906	1.2689	15.3644	18.9200 
266.350	0.0493	0.0347	0.9375	-2.2852	1.2195	15.2765	18.9300 
266.350	0.0054	0.0439	0.9678	-2.2852	1.1920	15.1117	18.9400 
266.360	-0.0107	0.0371	0.9814	-2.2852	1.1755	14.9030	18.9300 
266.380	0.0068	0.0562	0.9893	-2.3071	1.1591	14.6942	18.9400 
266.400	0.0288	0.0962	0.9746	-2.2961	1.1151	14.4965	18.9200 
266.421	0.0352	0.0898	0.9126	-2.2467	1.0052	14.3481	18.9100 
266.442	0.0107	0.0908	0.9399	-2.2522	0.9448	14.1064	18.9100 
266.547	0.0068	0.0591	0.9888	-2.3456	0.9009	13.7439	18.9100 
266.559	0.0093	0.0396	1.0195	-2.5049	0.8514	13.3429	18.9300 
266.560	0.0015	0.0532	1.0474	-2.6367	0.7965	12.8979	18.9100 
266.560	-0.0068	0.0688	1.0762	-2.6862	0.7141	12.4750	18.9200 
266.560	0.0020	0.0967	1.0815	-2.6752	0.5988	12.0850	18.9200 
266.566	0.0220	0.1133	1.0640	-2.6697	0.4559	11.7279	18.9100 
266.583	0.0273	0.0991	1.0410	-2.7081	0.3131	11.3873	18.9200 
266.706	0.0156	0.0991	1.0205	-2.7740	0.2032	11.0468	18.9200 
266.712	0.0171	0.0859	1.0615	-2.8839	0.0769	10.7281	18.9200 
266.712	0.0566	0.0269	1.2173	-3.0707	-0.1263	10.4755	18.9100 
266.712	0.1084	-0.0361	1.2725	-3.2520	-0.5109	10.3217	18.9200 
266.713	0.1450	-0.1250	1.2432	-3.3893	-0.9668	10.1898	18.9100 
266.713	0.1528	-0.1729	1.2031	-3.4991	-1.3348	10.1514	18.9200 
266.719	0.1714	-0.2261	1.1240	-3.5321	-1.6919	10.3436	18.9200 
266.742	0.2012	-0.2168	1.0918	-3.5431	-1.9940	10.6677	18.9200 
266.762	0.2671	-0.1948	1.0400	-3.6694	-2.1533	10.9259	18.9100 
266.789	0.2217	-0.2046	1.0708	-3.8782	-2.1863	11.0028	18.9100 
266.809	0.0840	-0.2793	1.1465	-4.1144	-2.0654	10.8765	18.9000 
266.918	0.0229	-0.2715	1.1274	-4.3451	-1.8237	10.6952	18.9000 
266.931	0.0083	-0.1680	1.0098	-4.5648	-1.4282	10.6073	18.9000 
266.931	0.0449	-0.1543	0.8818	-4.7296	-1.0107	10.7117	18.9000 
266.931	0.0811	-0.1152	0.8193	-4.8615	-0.6207	10.9589	18.8900 
266.931	0.0908	-0.1206	0.8257	-4.9384	-0.2966	11.2115	18.8900 
266.932	0.0781	-0.1250	0.8652	-4.9988	-0.0165	11.3654	18.9000 
266.938	0.0625	-0.1572	0.9019	-5.0427	0.2582	11.4642	18.8800 
266.956	0.0459	-0.1680	0.9668	-5.0537	0.5273	11.5851	18.8700 
266.978	0.0566	-0.1230	0.9976	-4.9768	0.7526	11.7719	18.8700 
267.002	0.1182	-0.0337	0.9897	-4.8285	0.8954	12.0630	18.8700 
267.024	0.1426	-0.0122	0.9702	-4.6637	0.9613	12.4200	18.8700 
267.128	0.1187	0.0146	0.9985	-4.4824	0.9723	12.7826	18.8500 
267.141	0.1045	0.0264	1.0132	-4.3011	0.9119	13.1396	18.8700 
267.141	0.1172	0.0122	0.9707	-4.1803	0.8130	13.4912	18.8700 
267.141	0.1255	0.0151	0.9409	-4.1089	0.7251	13.8263	18.8700 
267.141	0.1294	0.0039	1.0054	-4.0759	0.6921	14.1339	18.8700 
267.147	0.1465	-0.0107	1.0425	-4.0210	0.6702	14.4360	18.8600 
267.162	0.1489	0.0059	1.0737	-3.9056	0.6427	14.7272	18.8500 
267.184	0.1440	0.0283	1.0684	-3.7299	0.6427	15.0018	18.8300 
267.207	0.1694	0.0835	1.0698	-3.5431	0.6812	15.2765	18.8700 
267.214	0.1880	0.0972	1.0630	-3.3893	0.7306	15.5457	18.8500 
267.234	0.1919	0.0986	1.0718	-3.2904	0.7855	15.7874	18.8500 
267.334	0.1836	0.0771	1.0649	-3.2080	0.8350	16.0071	18.8600 
267.349	0.1284	0.0010	1.0850	-3.1586	0.9174	16.2268	18.8400 
267.349	0.0762	-0.0542	1.1226	-3.0981	1.0272	16.4795	18.8500 
267.349	0.0156	-0.0757	1.2446	-3.0157	1.1755	16.7871	18.8500 
267.349	0.0205	0.0259	1.2705	-2.8235	1.3019	17.1552	18.8400 
267.356	0.0610	0.0317	1.2212	-2.4774	1.2689	17.7374	18.8400 
267.373	0.0654	0.0068	1.1216	-2.1149	1.1646	18.3746	18.8400 
267.394	-0.0063	-0.0527	0.9976	-1.7468	1.0767	18.9020	18.8400 
267.417	-0.1519	-0.1895	1.0078	-1.5765	1.1810	19.0997	18.8400 
267.437	-0.2007	-0.1777	1.0796	-1.5820	1.4612	19.0503	18.8400 
267.558	-0.1660	-0.0767	1.1621	-1.6919	1.7303	19.0668	18.8200 
267.565	-0.0679	-0.0806	1.1265	-1.9006	1.8457	19.3359	18.8100 
267.565	0.0186	-0.0615	1.0820	-2.1753	1.9061	19.6161	18.8100 
267.565	0.0308	-0.0449	1.0239	-2.4445	1.9501	19.7864	18.8200 
267.565	-0.0010	-0.0400	0.9141	-2.6587	1.9885	19.8413	18.8200 
267.565	-0.0405	-0.0293	0.8887	-2.8180	2.0270	19.8193	18.8300 
267.571	-0.0381	-0.0635	0.8770	-2.9498	1.9940	19.8413	18.8200 
267.593	-0.0161	-0.0698	0.8770	-3.0707	1.9226	19.8907	18.8100 
267.616	-0.0015	-0.0190	0.8921	-3.1860	1.9116	19.8468	18.8300 
267.637	0.0005	0.0044	0.9170	-3.3234	1.9885	19.6930	18.8300 
267.660	0.0044	0.0229	0.9580	-3.4607	2.0764	19.4788	18.8100 
267.770	-0.0010	0.0313	0.9736	-3.5706	2.1259	19.2426	18.8200 
267.785	-0.0151	0.0117	0.9639	-3.6694	2.1533	18.9734	18.8300 
267.785	-0.0200	-0.0098	0.9570	-3.7683	2.1863	18.6932	18.8400 
267.785	-0.0215	0.0049	0.9458	-3.8507	2.1918	18.4351	18.8200 
267.785	-0.0181	0.0435	0.9336	-3.8837	2.1533	18.1879	18.8300 
267.785	0.0015	0.0601	0.9604	-3.8947	2.0490	17.9572	18.8100 
267.792	0.0161	0.0493	0.9736	-3.9386	1.9116	17.7045	18.8200 
267.812	0.0073	0.0518	0.9858	-4.0045	1.7908	17.3639	18.8100 
267.927	-0.0063	0.0464	1.0127	-4.0814	1.6974	16.9684	18.8100 
267.933	-0.0078	0.0381	1.0610	-4.1418	1.5820	16.5344	18.8200 
267.933	-0.0078	0.0269	1.0864	-4.1803	1.4227	16.1169	18.8000 
267.933	-0.0127	0.0581	1.1055	-4.1693	1.2415	15.7050	18.8000 
267.933	-0.0010	0.0796	1.1196	-4.1364	1.0437	15.3424	18.8100 
267.933	0.0498	0.0952	1.1719	-4.1418	0.8020	15.0238	18.8100 
267.960	0.0952	0.0400	1.2373	-4.2297	0.4889	14.7272	18.8100 
267.970	0.1528	-0.0376	1.2642	-4.3176	0.0769	14.4141	18.8100 
267.989	0.1284	-0.1270	1.3096	-4.4110	-0.3076	14.1174	18.8300 
268.010	0.1084	-0.2354	1.2510	-4.4110	-0.6866	13.9471	18.8100 
268.033	0.0894	-0.2158	1.1377	-4.2517	-1.0602	13.9691	18.8100 
268.135	0.1177	-0.1704	1.0142	-4.0649	-1.2634	14.1229	18.8100 
268.147	0.1787	-0.1465	0.9839	-3.9386	-1.3239	14.3207	18.8100 
268.147	0.1787	-0.2129	0.9429	-3.9111	-1.3019	14.4031	18.8100 
268.147	0.1040	-0.2495	0.9805	-3.9771	-1.1096	14.1943	18.8100 
268.147	0.0200	-0.2500	1.0918	-4.1528	-0.7635	13.7659	18.8100 
268.153	0.0137	-0.2021	1.0952	-4.3396	-0.3571	13.3429	18.8100 
268.169	0.0654	-0.1074	1.0054	-4.4604	-0.0055	13.1342	18.8000 
268.194	0.0918	-0.0601	0.9448	-4.5099	0.2692	13.0573	18.8100 
268.212	0.0947	-0.1016	0.8813	-4.5044	0.4614	13.0957	18.8100 
268.235	0.0645	-0.1104	0.8892	-4.4824	0.6317	13.1012	18.8100 
268.359	0.0317	-0.1108	0.9419	-4.4495	0.8240	13.0243	18.8000 
268.365	0.0356	-0.1045	0.9775	-4.4055	0.9998	12.9474	18.8200 
268.365	0.0610	-0.0566	0.9800	-4.3396	1.1151	12.9309	18.8200 
268.365	0.0879	-0.0205	0.9688	-4.2517	1.2085	12.9584	18.8000 
268.365	0.1064	-0.0156	0.9570	-4.1913	1.2854	13.0353	18.8000 
268.365	0.0947	-0.0181	0.9731	-4.1638	1.3788	13.1067	18.8000 
268.372	0.0820	-0.0234	0.9746	-4.1638	1.4886	13.1726	18.8100 
268.393	0.0752	-0.0063	1.0024	-4.2188	1.6479	13.2275	18.8000 
268.418	0.0923	-0.0142	1.0215	-4.3231	1.8292	13.3209	18.8100 
268.439	0.1074	-0.0435	1.0225	-4.4495	1.9995	13.4253	18.8100 
268.449	0.0938	-0.0381	1.0171	-4.5264	2.1753	13.4967	18.7900 
268.466	0.0669	-0.0176	1.0264	-4.5099	2.3401	13.5901	18.8100 
268.605	0.0605	-0.0234	1.0508	-4.4495	2.4774	13.7494	18.8100 
268.619	0.0991	0.0332	1.0615	-4.3616	2.5928	13.9471	18.8000 
268.620	0.1353	0.0747	1.0391	-4.2297	2.6642	14.1724	18.8000 
268.620	0.1279	0.0234	1.0225	-4.0814	2.6917	14.4196	18.7900 
268.620	0.0796	-0.0527	1.0327	-3.9056	2.7081	14.6558	18.8000 
268.620	-0.0322	-0.1450	1.1982	-3.7024	2.7631	14.8480	18.8000 
268.620	-0.0527	-0.0327	1.2568	-3.3563	2.7960	15.0732	18.8000 
268.628	0.0044	-0.0352	1.2686	-2.8564	2.7301	15.5347	18.7900 
268.646	0.0137	0.0142	1.3066	-2.3456	2.6312	15.9961	18.7800 
268.769	-0.0371	0.0010	1.0903	-1.7853	2.5049	16.3367	18.7900 
268.775	-0.1396	-0.0669	0.9819	-1.3843	2.5488	16.4301	18.7900 
268.775	-0.2607	-0.1504	1.0488	-1.1865	2.7631	16.3312	18.8000 
268.775	-0.2119	-0.1318	1.1016	-1.1646	2.9279	16.3477	18.7900 
268.775	-0.0737	-0.0366	1.0991	-1.3019	2.9663	16.5894	18.8000 
268.775	0.0117	-0.0054	1.0342	-1.4832	2.8949	16.9629	18.7900 
268.784	0.0498	0.0059	0.9712	-1.6644	2.7686	17.3529	18.8000 
268.806	0.0405	0.0156	0.9473	-1.8347	2.6312	17.6440	18.8000 
268.844	0.0010	-0.0088	0.8726	-1.9940	2.4884	17.8528	18.8100 
268.855	-0.0332	-0.0117	0.8770	-2.1368	2.4005	17.9626	18.7900 
268.865	-0.0298	-0.0132	0.9199	-2.2522	2.3016	18.0615	18.8000 
268.896	-0.0127	0.0146	0.9438	-2.3401	2.1698	18.1824	18.8000 
269.019	0.0083	0.0264	0.9365	-2.3895	2.0270	18.3142	18.7900 
269.032	0.0112	0.0381	0.9570	-2.4554	1.9116	18.4131	18.7800 
269.032	0.0215	0.0400	0.9595	-2.5543	1.8018	18.4625	18.8000 
269.032	0.0146	0.0229	0.9565	-2.7026	1.7194	18.4735	18.7700 
269.033	0.0078	0.0156	0.9644	-2.8510	1.6589	18.4845	18.7800 
269.033	0.0181	0.0103	0.9658	-2.9773	1.5930	18.5120	18.7800 
269.034	0.0073	0.0317	0.9448	-3.0487	1.5271	18.5339	18.7800 
269.055	0.0049	0.0356	0.9243	-3.0487	1.4117	18.5614	18.7700 
269.063	0.0015	0.0200	0.9395	-3.0267	1.2579	18.5889	18.7800 
269.184	0.0059	0.0415	0.9834	-3.0377	1.1261	18.5614	18.7700 
269.197	0.0083	0.0337	1.0264	-3.0157	0.9833	18.5120	18.7800 
269.197	0.0200	0.0581	1.0728	-2.9553	0.8624	18.4351	18.7800 
269.197	0.0171	0.0830	1.1196	-2.8455	0.7581	18.3307	18.7800 
269.198	0.0098	0.1064	1.1216	-2.7081	0.6812	18.1989	18.7700 
269.198	0.0059	0.1392	1.1401	-2.5708	0.6537	18.0176	18.7700 
269.204	0.0273	0.0664	1.2275	-2.5104	0.6592	17.7704	18.7500 
269.222	0.0659	0.0142	1.3428	-2.5214	0.6042	17.4518	18.7600 
269.349	0.0835	-0.0391	1.3545	-2.4664	0.4834	17.1277	18.7800 
269.355	0.0928	-0.0835	1.3677	-2.3840	0.3790	16.8475	18.7700 
269.355	0.1167	-0.1592	1.1846	-2.1918	0.1593	16.8201	18.7600 
269.355	0.1143	-0.1475	1.1016	-1.9775	-0.0220	16.9684	18.7700 
269.355	0.1553	-0.2241	1.0151	-1.8457	-0.1978	17.2430	18.7700 
269.355	0.1592	-0.2749	1.0352	-1.8622	-0.2966	17.4023	18.7700 
269.361	0.0898	-0.1816	1.1416	-1.8951	-0.2252	17.2211	18.7600 
269.387	0.0679	-0.1084	1.1636	-1.9391	-0.0604	16.8970	18.7500 
269.409	0.1001	-0.0454	1.0332	-1.9611	0.0330	16.6882	18.7600 
269.432	0.1060	-0.0381	0.9385	-1.9446	0.1044	16.6113	18.7600 
269.452	0.1084	-0.0693	0.7983	-1.9006	0.1154	16.6223	18.7400 
269.569	0.0952	-0.1040	0.7617	-1.9171	0.1593	16.6058	18.7600 
269.584	0.0420	-0.0845	0.8433	-2.0215	0.3571	16.3971	18.7700 
269.584	0.0410	-0.1040	0.8804	-2.1533	0.5164	16.2048	18.7500 
269.584	0.0801	-0.1050	0.9219	-2.3071	0.5933	16.1169	18.7700 
269.584	0.1079	-0.0933	0.9448	-2.4609	0.6427	16.0675	18.7500 
269.584	0.1270	-0.0708	0.9639	-2.6202	0.7141	16.0126	18.7500 
269.591	0.1147	-0.0259	0.9854	-2.7631	0.8240	15.9247	18.7500 
269.606	0.1182	-0.0151	1.0117	-2.8729	0.9009	15.9027	18.7500 
269.629	0.1299	-0.0283	1.0386	-2.9883	0.9338	15.9521	18.7500 
269.651	0.1318	-0.0210	1.0259	-3.0927	0.9503	16.0236	18.7400 
269.673	0.1313	-0.0166	1.0073	-3.1750	0.9613	16.0895	18.7400 
269.784	0.1274	-0.0063	0.9971	-3.2355	0.9778	16.1444	18.7500 
269.797	0.1279	-0.0132	1.0298	-3.2849	1.0052	16.1938	18.7200 
269.797	0.1343	-0.0117	1.0527	-3.3014	1.0272	16.2762	18.7300 
269.797	0.1323	0.0259	1.0679	-3.2520	1.0492	16.3916	18.7400 
269.797	0.1484	0.0420	1.0537	-3.1641	1.0767	16.5619	18.7400 
269.797	0.1577	0.0581	1.0469	-3.0597	1.1261	16.7651	18.7500 
269.803	0.1768	0.0742	1.0361	-2.9443	1.1920	16.9739	18.7300 
269.820	0.1709	0.0630	1.0410	-2.8290	1.2634	17.1826	18.7500 
269.843	0.1313	-0.0308	1.0327	-2.6971	1.3239	17.4023	18.7300 
269.865	0.0669	-0.1382	1.0874	-2.5763	1.4337	17.6331	18.7400 
269.885	0.0122	-0.0869	1.2861	-2.4280	1.6479	17.7869	18.7500 
269.999	0.0474	0.0425	1.2319	-2.1094	1.8292	17.9736	18.7300 
270.015	0.0391	0.1108	1.2041	-1.7194	1.9940	18.2538	18.7300 
270.016	0.0063	0.1250	1.0684	-1.2469	2.1149	18.5559	18.7300 
270.016	-0.1074	-0.0703	0.9189	-0.8954	2.2632	18.7262	18.7300 
270.016	-0.2217	-0.1660	0.9829	-0.7196	2.4774	18.7756	18.7400 
270.016	-0.2388	-0.2065	1.0815	-0.7581	2.6587	18.9240	18.7500 
270.036	-0.1763	-0.1284	1.1855	-1.0327	2.8510	19.1547	18.7300 
270.059	-0.0381	-0.0186	1.2217	-1.3788	2.9993	19.4183	18.7200 
270.160	0.0190	0.0146	1.1968	-1.7468	3.0597	19.6216	18.7500 
270.174	0.0249	0.0308	1.0688	-2.0435	3.0267	19.7314	18.7200 
270.174	-0.0020	0.0225	0.9810	-2.2742	2.9883	19.7369	18.7200 
270.174	-0.0488	-0.0039	0.8931	-2.4335	2.9388	19.6490	18.7100 
270.174	-0.0562	-0.0254	0.8867	-2.5488	2.8510	19.5337	18.7400 
270.174	-0.0439	-0.0352	0.8740	-2.6202	2.6587	19.4568	18.7200 
270.180	-0.0112	-0.0381	0.8687	-2.7356	2.4829	19.3854	18.7300 
270.199	-0.0029	-0.0190	0.8730	-2.8729	2.3621	19.2535	18.7100 
270.217	0.0112	-0.0015	0.9077	-3.0432	2.3181	19.0778	18.7200 
270.239	0.0029	0.0063	0.9395	-3.2465	2.3346	18.8525	18.7200 
270.261	-0.0083	-0.0083	0.9624	-3.4497	2.3566	18.5779	18.7200 
270.367	-0.0215	-0.0176	0.9849	-3.6694	2.4005	18.2648	18.7100 
270.381	-0.0269	-0.0229	1.0098	-3.8782	2.4390	17.9407	18.7200 
270.381	-0.0288	-0.0195	0.9976	-4.0869	2.4664	17.6385	18.7200 
270.381	-0.0220	0.0283	0.9839	-4.3066	2.5214	17.3035	18.7000 
270.381	-0.0098	0.0430	0.9697	-4.5209	2.5708	16.9629	18.6900 
270.387	0.0015	0.0215	0.9624	-4.6802	2.5598	16.6718	18.7100 
270.404	-0.0244	0.0479	1.0195	-4.8010	2.5214	16.3477	18.7000 
270.423	-0.0244	0.0664	1.0400	-4.8395	2.4005	16.0345	18.7200 
270.443	-0.0078	0.0645	1.0498	-4.8724	2.2357	15.7269	18.7000 
270.465	-0.0005	0.0557	1.0601	-4.8944	2.0160	15.3809	18.6900 
270.591	-0.0034	0.0498	1.0532	-4.8779	1.7468	15.0128	18.7000 
270.597	0.0015	0.0581	1.0205	-4.8285	1.4282	14.6393	18.7200 
270.597	0.0059	0.0679	1.0176	-4.7681	1.0767	14.2712	18.7000 
270.597	0.0625	0.0073	1.1475	-4.7626	0.6702	13.9087	18.6900 
270.597	0.1299	-0.0225	1.2554	-4.7845	0.2142	13.5571	18.6800 
270.597	0.1489	-0.1260	1.3667	-4.8065	-0.2032	13.1891	18.7100 
270.597	0.1738	-0.1284	1.3354	-4.7681	-0.5933	12.8430	18.6900 
270.625	0.2134	-0.1680	1.1729	-4.5758	-1.0162	12.7222	18.7100 
270.634	0.2183	-0.2500	1.1250	-4.3506	-1.4392	12.8870	18.6900 
270.665	0.2031	-0.2954	1.1206	-4.2078	-1.7468	13.1067	18.6900 
270.678	0.1724	-0.2920	1.1304	-4.1913	-1.8512	13.1232	18.6700 
270.701	0.0898	-0.2178	1.1699	-4.2682	-1.7688	12.8705	18.6900 
270.807	0.0752	-0.1719	1.1250	-4.4220	-1.5765	12.5134	18.6900 
270.819	0.0522	-0.0908	0.9614	-4.5813	-1.3019	12.2278	18.6700 
270.819	0.0674	-0.1045	0.8418	-4.7021	-0.9998	12.1179	18.6900 
270.819	0.0952	-0.1528	0.7764	-4.8120	-0.7416	12.1838	18.6800 
270.819	0.0903	-0.1343	0.7983	-4.8889	-0.4834	12.2058	18.6700 
270.819	0.0830	-0.1035	0.8701	-4.8834	-0.2307	12.1234	18.6800 
270.841	0.0957	-0.1074	0.8979	-4.8340	-0.0604	12.0905	18.6800 
270.853	0.1006	-0.1079	0.9141	-4.7461	0.0494	12.0850	18.6600 
270.872	0.1001	-0.0884	0.9312	-4.6637	0.1428	12.1124	18.6800 
270.892	0.1108	-0.0654	0.9424	-4.5923	0.1868	12.2168	18.6700 
270.915	0.1216	-0.0591	0.9771	-4.5703	0.2142	12.3596	18.6800 
271.021	0.1348	-0.0322	1.0034	-4.5978	0.2527	12.5189	18.6700 
271.036	0.1431	-0.0376	0.9980	-4.6472	0.3076	12.6892	18.6800 
271.036	0.1353	-0.0654	1.0225	-4.7186	0.4010	12.8760	18.6900 
271.036	0.1265	-0.0684	1.0225	-4.7845	0.5219	13.0682	18.6800 
271.036	0.1221	-0.0503	1.0356	-4.8065	0.6592	13.2715	18.6900 
271.043	0.1357	-0.0278	1.0527	-4.8175	0.8075	13.4912	18.6700 
271.057	0.1577	-0.0142	1.0654	-4.7845	0.9338	13.7549	18.6900 
271.079	0.1870	0.0254	1.0757	-4.6857	1.0437	14.0515	18.7000 
271.182	0.1899	0.0669	1.0830	-4.5319	1.1646	14.3152	18.6900 
271.196	0.1826	0.1172	1.0630	-4.3341	1.2964	14.5459	18.6600 
271.197	0.1631	0.0713	1.0439	-4.1309	1.4227	14.7766	18.6800 
271.197	0.0815	-0.0225	1.0547	-3.9441	1.5875	14.9744	18.6800 
271.197	0.0068	-0.1094	1.1147	-3.7903	1.8073	15.1611	18.6900 
271.203	-0.0112	-0.0645	1.2871	-3.6639	2.0215	15.3369	18.6800 
271.216	0.0215	-0.0098	1.2803	-3.4662	2.1533	15.6006	18.6800 
271.239	-0.0264	0.0610	1.2729	-3.2520	2.3071	15.7983	18.6900 
271.260	-0.0527	0.0337	1.0815	-2.9773	2.3840	15.9467	18.6700 
271.270	-0.1577	-0.1191	0.9897	-2.8070	2.5323	15.9576	18.6800 
271.289	-0.2202	-0.1792	1.0122	-2.6862	2.6477	15.9412	18.6700 
271.400	-0.2153	-0.1689	1.0532	-2.6147	2.6807	16.0895	18.6600 
271.414	-0.1333	-0.1079	1.0645	-2.6807	2.6917	16.3971	18.6700 
271.415	-0.0229	-0.0732	1.0586	-2.9279	2.6752	16.7871	18.6700 
271.415	0.0059	-0.0654	1.0381	-3.2190	2.6477	17.1057	18.6900 
271.415	0.0146	-0.0552	0.9858	-3.5156	2.5818	17.2815	18.6600 
271.421	-0.0005	-0.0645	0.9526	-3.7793	2.4939	17.3584	18.6500 
271.436	-0.0322	-0.0596	0.9097	-3.9496	2.4060	17.3474	18.6500 
271.456	-0.0352	-0.0576	0.9185	-4.0375	2.3016	17.3309	18.6500 
271.477	-0.0117	-0.0288	0.9131	-4.0430	2.1423	17.3804	18.6700 
271.501	0.0122	-0.0166	0.8999	-4.0265	1.9830	17.4573	18.6600 
271.610	0.0166	-0.0249	0.9180	-4.0649	1.8951	17.4683	18.6700 
271.622	-0.0020	-0.0078	0.9556	-4.1309	1.8951	17.3749	18.6500 
271.622	-0.0142	0.0054	0.9653	-4.1858	1.9226	17.2375	18.6800 
271.622	-0.0205	-0.0029	0.9775	-4.2352	1.9501	17.1222	18.6700 
271.622	-0.0195	-0.0054	0.9692	-4.2902	1.9885	17.0343	18.6600 
271.623	-0.0127	-0.0020	0.9453	-4.3671	2.0435	16.9629	18.6700 
271.629	-0.0181	0.0137	0.9443	-4.4330	2.1094	16.8695	18.6700 
271.648	-0.0254	0.0303	0.9639	-4.4714	2.1533	16.7542	18.6600 
271.668	-0.0088	0.0571	1.0024	-4.4824	2.1423	16.6553	18.6600 
271.689	0.0044	0.0781	1.0361	-4.4879	2.0929	16.5344	18.6500 
271.711	0.0093	0.1025	1.0669	-4.4714	2.0215	16.3751	18.6500 
271.825	-0.0005	0.0859	1.0811	-4.4165	1.9391	16.2213	18.6500 
271.839	-0.0156	0.0635	1.1030	-4.3286	1.8457	16.1060	18.6600 
271.839	-0.0156	0.0811	1.0898	-4.2078	1.7468	16.0400	18.6500 
271.839	0.0029	0.1172	1.0649	-4.1034	1.6534	16.0291	18.6600 
271.839	0.0249	0.1167	1.0674	-4.0594	1.5656	16.0071	18.6600 
271.839	0.0518	0.0469	1.1416	-4.0979	1.4392	15.9247	18.6400 
271.847	0.0610	0.0063	1.1875	-4.1583	1.2250	15.8148	18.6500 
271.866	0.0918	-0.1313	1.2944	-4.2902	1.0162	15.7159	18.6400 
271.886	0.1411	-0.1704	1.2168	-4.3945	0.7855	15.7269	18.6200 
271.906	0.1401	-0.2046	1.0918	-4.3671	0.4669	15.9686	18.6400 
271.929	0.1313	-0.2183	1.0308	-4.3066	0.2637	16.3367	18.6300 
272.036	0.1113	-0.3159	1.0547	-4.3835	0.2142	16.6827	18.6400 
272.051	0.0435	-0.3003	1.1445	-4.5483	0.3076	16.7871	18.6600 
272.051	-0.0029	-0.2900	1.2065	-4.7241	0.4559	16.6498	18.6500 
272.051	0.0098	-0.2158	1.1992	-4.9823	0.6317	16.4246	18.6400 
272.051	0.0410	-0.1909	1.1030	-5.2460	0.7855	16.2488	18.6400 
272.058	0.0518	-0.1729	1.0010	-5.3998	0.8679	16.1993	18.6400 
272.074	0.0684	-0.1763	0.9424	-5.3998	0.8075	16.3367	18.6400 
272.093	0.0874	-0.1318	0.9058	-5.3174	0.7196	16.5125	18.6300 
272.192	0.0781	-0.0952	0.9185	-5.1581	0.6317	16.6553	18.6300 
272.204	0.0786	-0.1382	0.8838	-4.9713	0.4779	16.8970	18.6400 
272.204	0.0757	-0.1411	0.8896	-4.8065	0.3516	17.1387	18.6300 
272.204	0.1035	-0.1118	0.8960	-4.6912	0.2856	17.3694	18.6300 
272.205	0.1187	-0.0903	0.9063	-4.6252	0.2802	17.5946	18.6300 
272.216	0.1353	-0.0610	0.9497	-4.5923	0.3241	17.8033	18.6400 
272.231	0.1323	-0.0449	0.9780	-4.5813	0.4120	18.0121	18.6300 
272.252	0.1328	-0.0552	0.9824	-4.5813	0.5383	18.2373	18.6200 
272.274	0.1348	-0.0605	0.9888	-4.6033	0.6921	18.4680	18.6100 
272.295	0.1187	-0.0576	1.0015	-4.6143	0.8954	18.6713	18.6400 
272.411	0.1064	-0.0503	1.0127	-4.5813	1.1151	18.8470	18.6300 
272.422	0.1030	-0.0244	1.0376	-4.4604	1.3129	19.0393	18.6300 
272.423	0.1113	-0.0029	1.0435	-4.2627	1.4667	19.2865	18.6400 
272.423	0.1475	0.0654	1.0337	-3.9771	1.5710	19.5941	18.6200 
272.423	0.1685	0.0918	1.0088	-3.6694	1.6370	19.9347	18.6100 
272.423	0.1592	0.0552	0.9800	-3.3893	1.7084	20.2313	18.6200 
272.430	0.1069	0.0088	0.9849	-3.1366	1.8237	20.4620	18.6200 
272.444	-0.0098	-0.1543	1.0898	-2.9169	1.9885	20.6818	18.6300 
272.467	-0.0479	-0.1299	1.2495	-2.7136	2.2083	20.8466	18.6100 
272.493	-0.0273	-0.0566	1.3159	-2.4060	2.3730	21.1102	18.6200 
272.514	-0.0161	0.0757	1.3379	-2.0654	2.5159	21.4453	18.6200 
272.615	-0.0308	0.1255	1.1099	-1.7139	2.6312	21.7804	18.6100 
272.626	-0.0859	0.0288	1.0015	-1.4832	2.8125	21.9727	18.6300 
272.626	-0.1885	-0.1157	1.0181	-1.3953	2.9883	22.0825	18.6200 
272.626	-0.2129	-0.1563	1.0786	-1.4832	3.1586	22.1869	18.6100 
272.626	-0.1440	-0.1255	1.0776	-1.7468	3.3124	22.3242	18.6200 
272.634	-0.0830	-0.1079	1.0747	-2.1259	3.4442	22.4945	18.6200 
272.650	-0.0298	-0.0640	1.0425	-2.5269	3.4937	22.6758	18.6100 
272.671	-0.0107	-0.0356	1.0054	-2.8839	3.4607	22.7911	18.6200 
272.682	-0.0024	-0.0122	0.9263	-3.1750	3.3453	22.7966	18.6200 
272.701	-0.0151	-0.0166	0.9077	-3.3728	3.1915	22.7417	18.6200 
272.721	-0.0435	-0.0352	0.9004	-3.4552	2.9883	22.7032	18.6100 
272.828	-0.0444	-0.0229	0.9106	-3.4827	2.7686	22.6648	18.6100 
272.840	-0.0068	-0.0269	0.9307	-3.5046	2.5378	22.6648	18.6000 
272.840	0.0186	-0.0190	0.9463	-3.5651	2.3291	22.6648	18.5900 
272.840	0.0254	-0.0059	0.9644	-3.6639	2.1918	22.5824	18.6200 
272.840	0.0156	0.0005	0.9600	-3.7683	2.1149	22.4451	18.6100 
272.846	0.0005	-0.0044	0.9663	-3.8617	2.0819	22.3077	18.6100 
272.865	0.0034	-0.0068	0.9600	-3.9221	2.0435	22.2198	18.6100 
272.883	0.0059	0.0142	0.9834	-3.9331	1.9885	22.1539	18.6000 
272.906	0.0430	0.0293	0.9844	-3.8892	1.8787	22.0551	18.6000 
272.931	0.0249	0.0825	1.0073	-3.7848	1.7853	21.8463	18.6100 
273.038	0.0156	0.0957	1.0063	-3.6804	1.6809	21.5771	18.5900 
273.049	0.0205	0.0698	1.0156	-3.6365	1.5820	21.2970	18.5900 
273.050	0.0127	0.0645	1.0405	-3.6200	1.5161	20.9729	18.5900 
273.050	-0.0068	0.0967	1.0952	-3.6255	1.4886	20.5939	18.6000 
273.050	-0.0005	0.0923	1.1108	-3.6584	1.4282	20.2643	18.5900 
273.050	-0.0005	0.0972	1.1055	-3.7244	1.3568	19.9182	18.5900 
273.058	0.0054	0.1123	1.0410	-3.7958	1.2579	19.5612	18.5900 
273.079	0.0166	0.0947	1.0342	-3.8892	1.1151	19.2151	18.5900 
273.100	0.0469	0.0283	1.1445	-4.0100	0.8899	18.8635	18.5800 
273.121	0.0952	0.0039	1.2451	-4.1418	0.5713	18.4955	18.5800 
273.141	0.1318	-0.1060	1.3247	-4.2792	0.2087	18.1274	18.5700 
273.249	0.1499	-0.1592	1.2969	-4.3561	-0.1703	17.8638	18.5600 
273.262	0.1597	-0.2075	1.1470	-4.2627	-0.6097	17.9077	18.5700 
273.262	0.1709	-0.2529	1.0835	-4.1693	-0.9833	18.1494	18.5800 
273.263	0.1704	-0.3345	1.0649	-4.2078	-1.1755	18.4076	18.5700 
273.263	0.1206	-0.3306	1.1182	-4.3561	-1.1536	18.3911	18.5700 
273.269	0.0552	-0.3003	1.1455	-4.5374	-1.0052	18.1165	18.5600 
273.284	0.0298	-0.2520	1.1318	-4.7681	-0.7910	17.7924	18.5700 
273.307	0.0220	-0.1616	1.0195	-5.0043	-0.5054	17.5122	18.5700 
273.405	0.0361	-0.1421	0.9248	-5.1910	-0.2307	17.3804	18.5800 
273.418	0.0698	-0.1313	0.8281	-5.3009	-0.0110	17.4133	18.5500 
273.418	0.0781	-0.1362	0.8296	-5.3668	0.1538	17.4738	18.5500 
273.418	0.0581	-0.1465	0.8770	-5.3778	0.2911	17.4738	18.5700 
273.418	0.0581	-0.1611	0.8823	-5.3339	0.3625	17.4683	18.5400 
273.424	0.0708	-0.1606	0.9053	-5.2679	0.3900	17.5122	18.5600 
273.441	0.0894	-0.1348	0.9180	-5.1965	0.3900	17.6166	18.5500 
273.460	0.1196	-0.0684	0.9438	-5.1306	0.3845	17.7594	18.5600 
273.484	0.1372	-0.0576	0.9741	-5.0922	0.3625	17.9407	18.5600 
273.508	0.1519	-0.0444	1.0215	-5.1086	0.3351	18.1329	18.5500 
273.612	0.1504	-0.0361	1.0293	-5.1526	0.3241	18.3032	18.5500 
273.624	0.1367	-0.0591	1.0337	-5.2185	0.3406	18.4735	18.5500 
273.625	0.1333	-0.0601	1.0396	-5.2954	0.3900	18.6383	18.5500 
273.625	0.1328	-0.0605	1.0244	-5.3503	0.4669	18.8251	18.5400 
273.625	0.1421	-0.0449	1.0127	-5.3723	0.5713	19.0338	18.5500 
273.625	0.1455	-0.0317	1.0190	-5.3394	0.6812	19.2645	18.5400 
273.648	0.1396	-0.0107	1.0342	-5.2679	0.8020	19.4843	18.5400 
273.655	0.1470	0.0254	1.0327	-5.1636	0.9448	19.6710	18.5400 
273.675	0.1504	0.0405	1.0195	-5.0427	1.0986	19.8633	18.5500 
273.696	0.1514	0.0396	1.0142	-4.9164	1.2469	20.0720	18.5400 
273.715	0.1499	0.0352	1.0239	-4.7900	1.4008	20.2917	18.5400 
273.821	0.1401	0.0161	1.0571	-4.6637	1.5656	20.5115	18.5500 
273.833	0.1108	0.0015	1.1011	-4.5428	1.7468	20.7312	18.5500 
273.833	0.0825	-0.0142	1.1851	-4.4440	1.9666	20.9125	18.5500 
273.833	0.0762	0.0352	1.3203	-4.3341	2.1753	21.0883	18.5500 
273.833	0.0708	0.0400	1.3242	-4.2133	2.3676	21.3245	18.5300 
273.839	0.0034	0.0464	1.2549	-4.1144	2.6202	21.4728	18.5300 
273.856	-0.0278	0.0239	1.0728	-3.9606	2.8290	21.5881	18.5600 
273.879	-0.1260	-0.1582	0.9082	-3.8782	2.9773	21.6486	18.5300 
273.899	-0.1846	-0.2861	0.9492	-3.9661	3.0762	21.6156	18.5500 
273.924	-0.2310	-0.2578	1.0415	-4.1858	3.2300	21.3959	18.5400 
274.029	-0.2305	-0.1763	1.0684	-4.4220	3.4113	21.1816	18.5400 
274.041	-0.1191	-0.1416	1.0386	-4.7406	3.5266	21.1707	18.5400 
274.041	-0.0513	-0.1152	1.0332	-5.1196	3.5266	21.2146	18.5500 
274.041	-0.0034	-0.1255	0.9917	-5.4382	3.3783	21.2476	18.5300 
274.041	-0.0229	-0.1514	0.9839	-5.6635	3.1586	21.2531	18.5400 
274.041	-0.0449	-0.1592	0.9634	-5.7788	2.9004	21.2585	18.5300 
274.063	-0.0508	-0.1216	0.9487	-5.8008	2.6477	21.2915	18.5300 
274.084	-0.0005	-0.0972	0.9116	-5.7843	2.3950	21.3959	18.5400 
274.093	0.0171	-0.0781	0.9102	-5.7678	2.1808	21.4728	18.5400 
274.113	0.0078	-0.0615	0.9341	-5.7623	2.0325	21.4288	18.5200 
274.133	-0.0054	-0.0425	0.9492	-5.7733	1.9556	21.2750	18.5400 
274.236	0.0024	-0.0342	0.9775	-5.7953	1.8842	21.1212	18.5400 
274.249	0.0059	-0.0317	0.9658	-5.8118	1.8073	21.0223	18.5300 
274.249	0.0142	-0.0059	0.9346	-5.8173	1.7578	20.9564	18.5200 
274.249	0.0181	0.0015	0.9194	-5.8173	1.7249	20.9125	18.5100 
274.249	0.0234	0.0010	0.9375	-5.8228	1.6754	20.8630	18.5300 
274.255	0.0098	-0.0020	0.9570	-5.8392	1.5985	20.7751	18.5200 
274.272	0.0020	-0.0195	0.9834	-5.8557	1.5161	20.6543	18.5200 
274.297	-0.0078	-0.0176	1.0127	-5.8832	1.4612	20.4840	18.5300 
274.316	0.0024	0.0376	1.0688	-5.9106	1.4227	20.2588	18.5300 
274.338	0.0229	0.0542	1.0933	-5.9161	1.3293	20.0610	18.5400 
274.443	0.0396	0.0542	1.1030	-5.9216	1.1975	19.8907	18.5100 
274.456	0.0273	0.0840	1.0903	-5.8942	1.0547	19.6985	18.5100 
274.456	0.0229	0.0952	1.0396	-5.8228	0.8789	19.5392	18.5000 
274.456	0.0220	0.1021	1.0474	-5.7623	0.6757	19.3909	18.5200 
274.456	0.0581	0.0605	1.1191	-5.7788	0.4230	19.1876	18.5100 
274.456	0.1055	0.0146	1.2090	-5.9161	0.1099	18.8855	18.5300 
274.478	0.1279	-0.0591	1.2573	-6.0425	-0.2582	18.5120	18.5000 
274.502	0.1338	-0.1548	1.3184	-6.1523	-0.6262	18.1659	18.5100 
274.510	0.1650	-0.2412	1.2329	-6.1249	-1.0822	17.9956	18.5100 
274.531	0.1782	-0.2417	1.1606	-5.9875	-1.5656	18.0286	18.5100 
274.550	0.1689	-0.2588	1.0298	-5.8447	-1.9556	18.1989	18.5100 
274.643	0.1660	-0.3096	1.0132	-5.8282	-2.1588	18.2703	18.5000 
274.655	0.1118	-0.2959	1.0688	-5.9216	-2.1918	18.0945	18.4900 
274.656	0.0742	-0.3022	1.0635	-6.0315	-2.1588	17.7594	18.4900 
274.656	0.0547	-0.2598	1.0273	-6.2073	-2.0050	17.3090	18.4900 
274.656	0.0430	-0.1523	1.0322	-6.3940	-1.7578	16.8146	18.4900 
274.681	0.0830	-0.1406	0.9126	-6.5369	-1.5436	16.5179	18.5000 
274.703	0.1011	-0.1475	0.8550	-6.6522	-1.3843	16.3531	18.4900 
274.711	0.1021	-0.1611	0.8296	-6.7236	-1.2634	16.2158	18.4800 
274.729	0.0806	-0.1709	0.8711	-6.7456	-1.1536	16.0291	18.4800 
274.750	0.0713	-0.1846	0.9063	-6.7346	-1.0822	15.8478	18.4800 
274.861	0.0918	-0.1743	0.9404	-6.6907	-1.0492	15.7269	18.4700 
274.873	0.1084	-0.1455	0.9507	-6.6248	-1.0272	15.6940	18.4700 
274.873	0.1387	-0.0918	0.9653	-6.5588	-1.0107	15.7159	18.4600 
274.873	0.1626	-0.0552	0.9873	-6.5204	-0.9888	15.7489	18.4600 
274.873	0.1782	-0.0630	1.0156	-6.5204	-0.9778	15.7819	18.4600 
274.879	0.1699	-0.0708	1.0342	-6.5314	-0.9613	15.7928	18.4600 
274.893	0.1416	-0.0718	1.0249	-6.5369	-0.9448	15.8038	18.4500 
274.917	0.1401	-0.0830	1.0156	-6.5479	-0.9283	15.8533	18.4600 
274.941	0.1372	-0.0732	1.0049	-6.5643	-0.8789	15.9137	18.4700 
274.950	0.1396	-0.0522	0.9946	-6.5479	-0.7965	15.9576	18.4700 
274.967	0.1577	-0.0342	0.9961	-6.4984	-0.6921	16.0400	18.4600 
275.067	0.1553	-0.0186	1.0142	-6.3940	-0.5823	16.1334	18.4600 
275.079	0.1694	0.0005	1.0283	-6.2183	-0.4834	16.2323	18.4600 
275.080	0.1777	0.0186	1.0303	-6.0095	-0.3900	16.3257	18.4500 
275.080	0.1904	0.0176	1.0464	-5.7788	-0.2966	16.4520	18.4500 
275.080	0.1797	0.0088	1.0518	-5.5481	-0.1923	16.6003	18.4500 
275.086	0.1465	-0.0093	1.0464	-5.3009	-0.0330	16.7871	18.4500 
275.106	0.1104	-0.0449	1.0713	-5.0427	0.1703	17.0068	18.4600 
275.126	0.0703	-0.0869	1.2061	-4.8010	0.4230	17.2375	18.4600 
275.148	0.0654	-0.0059	1.2817	-4.5044	0.7086	17.4573	18.4700 
275.167	0.0464	-0.0327	1.2788	-4.1748	0.9833	17.7539	18.4700 
275.274	0.0020	-0.0010	1.2500	-3.8287	1.2854	17.9956	18.4600 
275.286	-0.0850	0.0239	1.0342	-3.4497	1.5710	18.1549	18.4600 
275.286	-0.1182	-0.1016	0.9082	-3.1476	1.8127	18.2758	18.4600 
275.286	-0.1904	-0.2764	0.9360	-2.9773	1.9995	18.3087	18.4500 
275.286	-0.2080	-0.2202	1.0732	-2.8784	2.1643	18.2428	18.4400 
275.292	-0.1338	-0.0869	1.1294	-2.8400	2.1863	18.3472	18.4600 
275.307	-0.0493	-0.0439	1.0986	-2.8949	2.1698	18.5999	18.4600 
275.333	0.0293	-0.0068	1.0664	-3.0597	2.1423	18.8306	18.4400 
275.355	0.0625	-0.0073	1.0039	-3.2135	2.0435	19.0118	18.4600 
275.373	0.0522	-0.0308	0.9194	-3.3344	1.8512	19.1327	18.4400 
275.481	0.0273	-0.0386	0.9023	-3.4113	1.6315	19.2151	18.4500 
275.495	-0.0024	-0.0488	0.9180	-3.4552	1.3953	19.2480	18.4500 
275.496	0.0024	-0.0605	0.9199	-3.4882	1.1536	19.2755	18.4700 
275.496	0.0142	-0.0479	0.9331	-3.5211	0.9558	19.2865	18.4400 
275.496	0.0244	-0.0254	0.9385	-3.5486	0.8130	19.2535	18.4300 
275.496	0.0347	0.0161	0.9619	-3.5760	0.7306	19.1602	18.4500 
275.503	0.0381	0.0186	0.9805	-3.6035	0.6647	19.0118	18.4400 
275.523	0.0176	0.0059	0.9727	-3.6365	0.6097	18.8361	18.4400 
275.643	0.0044	0.0010	0.9556	-3.6859	0.5933	18.6328	18.4500 
275.662	0.0093	0.0034	0.9453	-3.7738	0.5988	18.4406	18.4300 
275.662	0.0313	0.0171	0.9390	-3.8727	0.5713	18.2593	18.4200 
275.662	0.0425	0.0337	0.9536	-3.9661	0.5164	18.0615	18.4300 
275.663	0.0562	0.0693	0.9932	-4.0430	0.4175	17.8143	18.4300 
275.663	0.0522	0.0625	1.0181	-4.1089	0.2856	17.5507	18.4400 
275.677	0.0337	0.0693	1.0464	-4.1473	0.1593	17.2485	18.4400 
275.684	0.0313	0.0630	1.0522	-4.1693	0.0165	16.9684	18.4200 
275.703	0.0435	0.0391	1.0269	-4.2078	-0.1703	16.7542	18.4300 
275.723	0.0479	0.0537	1.0259	-4.2627	-0.3571	16.5070	18.4400 
275.747	0.0527	0.0845	1.0464	-4.3121	-0.5548	16.2762	18.4300 
275.849	0.0698	0.0801	1.0649	-4.3671	-0.7800	16.1115	18.4300 
275.860	0.1069	0.0483	1.1777	-4.4824	-0.9998	15.9796	18.4400 
275.861	0.1528	0.0049	1.2397	-4.6088	-1.2854	15.8643	18.4300 
275.861	0.1440	-0.0088	1.2744	-4.6582	-1.6260	15.6830	18.4400 
275.861	0.1563	-0.0557	1.3604	-4.7186	-1.9171	15.4358	18.4200 
275.867	0.1855	-0.1343	1.2510	-4.7241	-2.2357	15.3149	18.4500 
275.886	0.1650	-0.1665	1.1387	-4.6527	-2.5049	15.3314	18.4300 
275.908	0.1367	-0.2314	1.0337	-4.5703	-2.6752	15.4962	18.4300 
275.931	0.1641	-0.2827	1.0117	-4.6088	-2.7411	15.6445	18.4200 
275.952	0.1587	-0.2920	1.0264	-4.7461	-2.6971	15.5841	18.4100 
276.063	0.1382	-0.2974	1.0532	-4.9493	-2.5433	15.3589	18.4100 
276.075	0.0820	-0.2686	1.1006	-5.1855	-2.2852	14.9854	18.4200 
276.075	0.0649	-0.2378	1.0786	-5.3943	-1.9830	14.6283	18.4300 
276.075	0.0776	-0.1631	0.9849	-5.5261	-1.6699	14.3701	18.4300 
276.075	0.0972	-0.1191	0.9175	-5.5756	-1.3898	14.2328	18.4300 
276.075	0.0913	-0.1006	0.8770	-5.5865	-1.1206	14.1174	18.4300 
276.081	0.0811	-0.1191	0.8687	-5.5646	-0.9119	13.9691	18.4200 
276.100	0.0713	-0.1592	0.8799	-5.5591	-0.7745	13.8153	18.4300 
276.122	0.0698	-0.1533	0.9038	-5.5756	-0.6427	13.6340	18.4000 
276.142	0.0952	-0.1089	0.9229	-5.5975	-0.5109	13.4637	18.4200 
276.168	0.1143	-0.0854	0.9307	-5.6250	-0.4065	13.3594	18.4100 
276.278	0.1323	-0.0820	0.9683	-5.6580	-0.3241	13.3154	18.4100 
276.292	0.1357	-0.0908	0.9946	-5.7129	-0.2637	13.3099	18.4100 
276.292	0.1235	-0.0879	1.0015	-5.7788	-0.1868	13.2880	18.4100 
276.292	0.1172	-0.0820	0.9912	-5.8557	-0.0879	13.2605	18.4100 
276.292	0.1191	-0.0811	0.9800	-5.9436	0.0385	13.2440	18.4000 
276.292	0.1123	-0.0610	0.9941	-6.0370	0.1923	13.2220	18.3900 
276.299	0.1284	-0.0562	1.0015	-6.1304	0.3680	13.2001	18.4100 
276.318	0.1396	-0.0508	1.0308	-6.2018	0.5548	13.1781	18.4100 
276.338	0.1440	-0.0620	1.0410	-6.2128	0.7141	13.1836	18.4200 
276.358	0.1372	-0.0264	1.0459	-6.1359	0.8569	13.1726	18.4100 
276.380	0.1431	-0.0015	1.0391	-5.9875	0.9613	13.2275	18.4000 
276.487	0.1528	-0.0054	1.0425	-5.8282	1.0492	13.3429	18.4000 
276.500	0.1606	0.0244	1.0571	-5.6744	1.1316	13.4912	18.3800 
276.501	0.1660	0.0439	1.0635	-5.5096	1.2085	13.6615	18.3900 
276.501	0.1626	0.0264	1.0596	-5.3448	1.2689	13.8922	18.4100 
276.501	0.1235	-0.0449	1.0283	-5.1636	1.3348	14.1888	18.4000 
276.509	0.0786	-0.1284	1.0825	-5.0098	1.4612	14.5129	18.4000 
276.525	0.0352	-0.0562	1.2715	-4.8450	1.6809	14.7601	18.4200 
276.548	0.0396	-0.0088	1.2456	-4.5374	1.8567	15.1007	18.3800 
276.557	0.0122	-0.0137	1.2988	-4.2682	2.0325	15.4852	18.4000 
276.577	-0.0205	0.0107	1.1846	-3.9386	2.1313	15.8752	18.4000 
276.596	-0.1353	-0.0337	1.0288	-3.7134	2.3346	16.0620	18.4000 
276.701	-0.1938	-0.1304	0.9849	-3.6200	2.5928	16.1499	18.3900 
276.713	-0.2549	-0.2554	1.0410	-3.6914	2.8290	16.2543	18.3900 
276.713	-0.2319	-0.2329	1.0825	-3.8342	2.9993	16.4246	18.3900 
276.713	-0.1333	-0.1421	1.0728	-4.0594	3.1036	16.6827	18.4000 
276.713	-0.0703	-0.1177	1.0425	-4.3561	3.1641	16.9629	18.4000 
276.720	-0.0278	-0.0986	0.9951	-4.6582	3.1531	17.1991	18.3900 
276.736	-0.0264	-0.0840	0.9517	-4.8889	3.0817	17.3859	18.3900 
276.758	-0.0410	-0.0679	0.9058	-5.0482	2.9443	17.5012	18.4100 
276.780	-0.0474	-0.0723	0.9272	-5.1526	2.7466	17.5836	18.4000 
276.801	-0.0400	-0.0894	0.9233	-5.1636	2.4664	17.7319	18.3800 
276.951	-0.0361	-0.0557	0.9360	-5.1416	2.2247	17.8528	18.4000 
276.963	-0.0107	-0.0430	0.9214	-5.1086	2.0160	17.9681	18.4000 
276.964	0.0098	-0.0444	0.9263	-5.1141	1.8402	18.0670	18.3900 
276.964	0.0083	-0.0464	0.9419	-5.1526	1.6974	18.1000	18.3900 
276.964	-0.0020	-0.0464	0.9429	-5.2185	1.5985	18.0615	18.3900 
276.964	-0.0024	-0.0459	0.9712	-5.3119	1.5326	17.9901	18.4000 
276.964	0.0044	-0.0327	0.9932	-5.4053	1.4777	17.9132	18.4000 
276.964	0.0234	-0.0127	0.9956	-5.4822	1.4172	17.8253	18.4200 
276.983	0.0293	-0.0039	1.0020	-5.5371	1.3513	17.6880	18.4100 
277.007	0.0298	0.0171	0.9873	-5.5646	1.2799	17.4628	18.3900 
277.109	0.0288	0.0176	0.9766	-5.5481	1.1975	17.1881	18.4000 
277.122	0.0308	0.0010	0.9785	-5.4987	1.0986	16.9080	18.3700 
277.122	0.0298	-0.0195	0.9888	-5.4382	0.9778	16.6498	18.4100 
277.122	0.0190	-0.0020	1.0176	-5.3833	0.8679	16.3477	18.4000 
277.122	0.0171	0.0264	1.0474	-5.3284	0.7690	16.0016	18.4000 
277.122	0.0435	0.0757	1.0762	-5.2954	0.6427	15.6500	18.3900 
277.141	0.0576	0.0874	1.0820	-5.2625	0.4944	15.3040	18.3900 
277.166	0.0522	0.1064	1.0503	-5.2075	0.3241	14.9744	18.3800 
277.173	0.0444	0.1177	1.0415	-5.1416	0.1648	14.6173	18.3700 
277.193	0.0532	0.0894	1.0991	-5.1361	0.0165	14.2053	18.3900 
277.213	0.0684	0.0391	1.2236	-5.2240	-0.1318	13.7219	18.3800 
277.325	0.1416	-0.0313	1.2661	-5.3778	-0.3680	13.1616	18.3900 
277.338	0.1699	-0.1499	1.2949	-5.5646	-0.6262	12.5958	18.4000 
277.338	0.1631	-0.2905	1.2905	-5.7678	-0.9064	12.1948	18.4000 
277.338	0.1685	-0.3320	1.2480	-5.9106	-1.2305	12.0300	18.3900 
277.339	0.1870	-0.3389	1.1328	-6.0205	-1.5656	12.1124	18.3900 
277.345	0.1738	-0.3071	1.0977	-6.2183	-1.7249	12.1289	18.4000 
277.360	0.1309	-0.3286	1.0776	-6.4819	-1.7249	12.0190	18.3900 
277.382	0.0332	-0.4043	1.0557	-6.8170	-1.5436	11.7059	18.4000 
277.481	-0.0269	-0.3193	1.0244	-7.1631	-1.2030	11.1182	18.3900 
277.496	-0.0239	-0.2764	0.9126	-7.4762	-0.8624	10.6073	18.3900 
277.496	0.0171	-0.2622	0.8604	-7.7399	-0.6262	10.2887	18.3900 
277.496	0.0718	-0.2559	0.8477	-7.9211	-0.5219	10.1239	18.4000 
277.496	0.0771	-0.2578	0.8965	-8.0530	-0.4669	9.9811	18.4000 
277.504	0.0703	-0.2764	0.9468	-8.1354	-0.4285	9.8602	18.3700 
277.517	0.0752	-0.2925	0.9785	-8.1903	-0.4120	9.8053	18.3900 
277.540	0.0913	-0.3140	0.9966	-8.2452	-0.4395	9.8767	18.3900 
277.561	0.0947	-0.3018	0.9995	-8.3112	-0.4559	10.0085	18.4000 
277.572	0.0903	-0.2993	1.0000	-8.3716	-0.4449	10.1733	18.3800 
277.688	0.0801	-0.3115	0.9795	-8.4045	-0.4175	10.3876	18.3900 
277.699	0.0537	-0.3423	0.9683	-8.3881	-0.3900	10.6677	18.3700 
277.700	0.0474	-0.3579	0.9795	-8.3276	-0.3625	11.0083	18.3800 
277.700	0.0508	-0.2798	0.9858	-8.2123	-0.3186	11.3214	18.3800 
277.700	0.0767	-0.2393	0.9629	-8.0365	-0.3021	11.6510	18.3700 
277.700	0.0776	-0.2217	1.0015	-7.8113	-0.3241	12.0081	18.3800 
277.711	0.0537	-0.2144	1.0801	-7.5146	-0.3351	12.3541	18.3900 
277.730	0.0347	-0.1455	1.1445	-7.1521	-0.3241	12.6508	18.3800 
277.749	0.0283	-0.0503	1.1069	-6.6962	-0.3021	12.9529	18.3700 
277.770	0.0435	0.0234	1.0200	-6.2238	-0.2527	13.2770	18.3900 
277.792	0.0625	0.0186	0.9751	-5.7898	-0.2252	13.5791	18.3900 
277.899	0.0757	-0.0132	0.9282	-5.4053	-0.2582	13.8373	18.3800 
277.912	0.0605	-0.0205	0.9399	-5.0757	-0.3351	14.0240	18.3900 
277.912	0.0386	-0.0210	0.9854	-4.8230	-0.4010	14.1284	18.3800 
277.912	0.0249	-0.0278	1.0225	-4.6307	-0.4449	14.2273	18.3800 
277.913	0.0405	-0.0488	1.0610	-4.5044	-0.4889	14.3701	18.3800 
277.919	0.0645	-0.0483	1.0747	-4.4385	-0.5273	14.5404	18.3800 
277.935	0.0859	-0.0107	1.0674	-4.4055	-0.5603	14.6997	18.3900 
277.958	0.0771	0.0024	1.0425	-4.3561	-0.6152	14.8370	18.3900 
277.969	0.0566	-0.0234	1.0117	-4.3011	-0.6976	14.9634	18.3800 
277.988	0.0557	-0.0522	1.0088	-4.2737	-0.7855	15.0787	18.3800 
278.008	0.0527	-0.0679	1.0229	-4.2902	-0.8350	15.1666	18.3700 
278.111	0.0581	-0.0576	1.0381	-4.3176	-0.8459	15.2216	18.3700 
278.122	0.0757	-0.0439	1.0527	-4.3396	-0.8405	15.2655	18.3900 
278.122	0.0723	-0.0303	1.0557	-4.3616	-0.8185	15.2875	18.3700 
278.122	0.0723	-0.0132	1.0396	-4.3945	-0.7745	15.2765	18.3700 
278.122	0.0806	-0.0200	1.0273	-4.4495	-0.7251	15.2435	18.3800 
278.128	0.0776	-0.0313	1.0332	-4.5154	-0.6592	15.2106	18.3700 
278.146	0.0723	-0.0317	1.0439	-4.5758	-0.5713	15.1556	18.3700 
278.166	0.0781	-0.0361	1.0503	-4.6527	-0.4614	15.0677	18.3800 
278.192	0.0845	-0.0439	1.0356	-4.7516	-0.3680	14.9963	18.3800 
278.215	0.0708	-0.0444	1.0342	-4.8669	-0.2527	14.8865	18.3900 
278.322	0.0449	-0.0483	1.0386	-4.9768	-0.1263	14.7491	18.3800 
278.334	0.0420	-0.0601	1.0308	-5.0647	-0.0275	14.6283	18.3900 
278.334	0.0459	-0.0571	1.0273	-5.1416	0.0439	14.5239	18.3800 
278.334	0.0513	-0.0586	1.0293	-5.2020	0.1044	14.4635	18.3700 
278.334	0.0430	-0.0562	1.0337	-5.2570	0.1648	14.4031	18.3800 
278.334	0.0405	-0.0566	1.0288	-5.3064	0.2252	14.3317	18.3900 
278.355	0.0474	-0.0698	1.0229	-5.3558	0.2637	14.2822	18.3700 
278.367	0.0498	-0.0688	1.0239	-5.3943	0.3021	14.2548	18.3700 
278.385	0.0581	-0.0801	1.0327	-5.4218	0.3351	14.2493	18.3800 
278.405	0.0605	-0.0703	1.0356	-5.4272	0.3680	14.2548	18.3800 
278.425	0.0620	-0.0449	1.0381	-5.4108	0.3955	14.2603	18.3800 
278.533	0.0698	-0.0498	1.0405	-5.3888	0.4010	14.2822	18.3700 
278.550	0.0679	-0.0625	1.0396	-5.3778	0.4010	14.3097	18.3900 
278.550	0.0640	-0.0654	1.0361	-5.3668	0.4065	14.3152	18.3900 
278.550	0.0591	-0.0493	1.0264	-5.3339	0.4175	14.3207	18.3800 
278.550	0.0645	-0.0425	1.0142	-5.2789	0.4065	14.3481	18.3900 
278.568	0.0674	-0.0459	1.0151	-5.2295	0.3735	14.3866	18.3800 
278.575	0.0708	-0.0537	1.0195	-5.2075	0.3406	14.4086	18.3700 
278.685	0.0718	-0.0518	1.0415	-5.1965	0.3186	14.4031	18.3600 
278.691	0.0713	-0.0547	1.0479	-5.1801	0.2966	14.3976	18.3700 
278.691	0.0688	-0.0557	1.0439	-5.1581	0.2582	14.4031	18.3700 
278.691	0.0708	-0.0542	1.0347	-5.1196	0.2142	14.4141	18.3700 
278.691	0.0747	-0.0459	1.0215	-5.0702	0.1593	14.4470	18.3700 
278.691	0.0806	-0.0547	1.0181	-5.0262	0.1044	14.4855	18.3700 
278.703	0.0825	-0.0586	1.0342	-4.9988	0.0549	14.5129	18.3600 
278.723	0.0864	-0.0635	1.0410	-4.9768	0.0165	14.5404	18.3700 
278.744	0.0845	-0.0557	1.0347	-4.9493	-0.0055	14.5624	18.3800 
278.766	0.0884	-0.0488	1.0347	-4.9109	-0.0385	14.5953	18.3600 
278.788	0.0898	-0.0518	1.0249	-4.8615	-0.0824	14.6283	18.3500 
278.898	0.0884	-0.0522	1.0259	-4.8120	-0.1318	14.6667	18.3800 
278.916	0.0864	-0.0469	1.0317	-4.7626	-0.1703	14.6942	18.3800 
278.916	0.0918	-0.0444	1.0332	-4.7186	-0.2197	14.7162	18.3600 
278.916	0.0977	-0.0415	1.0366	-4.6802	-0.2692	14.7272	18.3600 
278.916	0.0991	-0.0391	1.0337	-4.6472	-0.3131	14.7327	18.3700 
278.916	0.0952	-0.0454	1.0254	-4.6143	-0.3625	14.7382	18.3800 
278.932	0.0854	-0.0547	1.0303	-4.5758	-0.4065	14.7327	18.3700 
278.954	0.0918	-0.0605	1.0303	-4.5374	-0.4449	14.7327	18.3600 
278.962	0.0889	-0.0444	1.0435	-4.4934	-0.4724	14.7272	18.3700 
278.981	0.0918	-0.0405	1.0396	-4.4330	-0.4999	14.7162	18.3800 
279.001	0.0962	-0.0449	1.0352	-4.3726	-0.5273	14.7217	18.3700 
279.105	0.0923	-0.0386	1.0361	-4.3066	-0.5438	14.6942	18.3400 
279.117	0.0864	-0.0190	1.0259	-4.2407	-0.5493	14.6613	18.3700 
279.118	0.0894	-0.0190	1.0254	-4.1693	-0.5603	14.6393	18.3700 
279.118	0.0967	-0.0239	1.0269	-4.1034	-0.5768	14.6283	18.3800 
279.118	0.0952	-0.0269	1.0352	-4.0430	-0.5878	14.6173	18.3700 
279.124	0.0918	-0.0249	1.0386	-3.9935	-0.5823	14.6008	18.3700 
279.141	0.0879	-0.0322	1.0396	-3.9496	-0.5768	14.5953	18.3700 
279.165	0.0879	-0.0220	1.0332	-3.9001	-0.5713	14.6118	18.4000 
279.185	0.0874	-0.0142	1.0278	-3.8397	-0.5658	14.6173	18.3700 
279.206	0.0903	-0.0078	1.0322	-3.7903	-0.5548	14.6448	18.3700 
279.318	0.0869	-0.0039	1.0371	-3.7518	-0.5383	14.6667	18.3800 
279.332	0.0840	-0.0059	1.0327	-3.7299	-0.5109	14.6887	18.3800 
279.332	0.0825	-0.0156	1.0327	-3.7244	-0.4779	14.7107	18.3700 
279.332	0.0732	-0.0254	1.0342	-3.7408	-0.4395	14.7217	18.3800 
279.332	0.0703	-0.0317	1.0293	-3.7573	-0.4010	14.7382	18.3700 
279.332	0.0708	-0.0239	1.0259	-3.7628	-0.3735	14.7711	18.3600 
279.340	0.0776	-0.0239	1.0225	-3.7463	-0.3735	14.8260	18.3700 
279.359	0.0820	-0.0190	1.0244	-3.7189	-0.3900	14.8920	18.4000 
279.385	0.0796	-0.0171	1.0366	-3.6859	-0.4065	14.9579	18.3800 
279.403	0.0830	-0.0151	1.0415	-3.6639	-0.4175	15.0183	18.3700 
279.422	0.0854	-0.0156	1.0361	-3.6420	-0.4340	15.0842	18.3600 
279.527	0.0879	-0.0186	1.0269	-3.6200	-0.4504	15.1392	18.3700 
279.544	0.0835	-0.0215	1.0269	-3.5980	-0.4669	15.1941	18.3900 
279.544	0.0806	-0.0317	1.0303	-3.5706	-0.4834	15.2380	18.3800 
279.544	0.0820	-0.0273	1.0313	-3.5431	-0.4944	15.2765	18.4000 
279.544	0.0820	-0.0083	1.0396	-3.4991	-0.5054	15.3204	18.3700 
279.563	0.0908	-0.0156	1.0327	-3.4552	-0.5328	15.3699	18.3800 
279.569	0.0942	-0.0088	1.0322	-3.4277	-0.5603	15.4138	18.3900 
279.584	0.0918	-0.0063	1.0332	-3.4003	-0.5823	15.4413	18.3900 
279.605	0.0840	-0.0166	1.0308	-3.3838	-0.5933	15.4633	18.3800 
279.624	0.0811	-0.0229	1.0273	-3.3673	-0.6042	15.4852	18.3900 
279.740	0.0859	-0.0249	1.0229	-3.3508	-0.6207	15.5072	18.3800 
279.746	0.0854	-0.0166	1.0317	-3.3289	-0.6317	15.5237	18.3700 
279.746	0.0879	-0.0137	1.0400	-3.3124	-0.6372	15.5402	18.4000 
279.746	0.0898	-0.0156	1.0449	-3.3014	-0.6372	15.5511	18.3900 
279.746	0.0879	-0.0161	1.0361	-3.2849	-0.6427	15.5621	18.4000 
279.747	0.0845	-0.0161	1.0278	-3.2684	-0.6372	15.5731	18.3800 
279.758	0.0801	-0.0127	1.0259	-3.2465	-0.6262	15.5731	18.4000 
279.785	0.0815	-0.0132	1.0303	-3.2355	-0.6207	15.5841	18.4000 
279.799	0.0874	-0.0103	1.0356	-3.2245	-0.6207	15.5841	18.3800 
279.821	0.0874	-0.0151	1.0386	-3.2245	-0.6152	15.5896	18.4000 
279.841	0.0791	-0.0166	1.0391	-3.2190	-0.5988	15.5841	18.4200 
279.952	0.0781	-0.0195	1.0386	-3.2135	-0.5878	15.5896	18.4000 
279.966	0.0811	-0.0200	1.0322	-3.2080	-0.5823	15.6116	18.4000 
279.966	0.0869	-0.0127	1.0278	-3.2025	-0.5713	15.6445	18.3900 
279.966	0.0854	-0.0127	1.0293	-3.1970	-0.5603	15.6720	18.4000 
279.967	0.0825	-0.0229	1.0313	-3.1915	-0.5438	15.7050	18.4000 
279.967	0.0791	-0.0273	1.0396	-3.2025	-0.5164	15.7269	18.4000 
279.982	0.0776	-0.0244	1.0391	-3.2135	-0.4889	15.7434	18.4100 
279.996	0.0806	-0.0210	1.0303	-3.2245	-0.4724	15.7709	18.4000 
280.096	0.0801	-0.0239	1.0317	-3.2245	-0.4614	15.8148	18.4000 
280.108	0.0815	-0.0283	1.0283	-3.2300	-0.4449	15.8588	18.4000 
280.109	0.0757	-0.0239	1.0308	-3.2300	-0.4175	15.8917	18.4100 
280.109	0.0664	-0.0205	1.0415	-3.2300	-0.3845	15.9137	18.4000 
280.109	0.0728	-0.0288	1.0288	-3.2300	-0.3625	15.9576	18.4000 
280.116	0.0776	-0.0181	1.0327	-3.2355	-0.3571	15.9961	18.4200 
280.134	0.0820	-0.0195	1.0293	-3.2410	-0.3625	16.0345	18.4100 
280.154	0.0781	-0.0259	1.0264	-3.2520	-0.3571	16.0620	18.4300 
280.174	0.0737	-0.0356	1.0308	-3.2684	-0.3516	16.0950	18.4100 
280.198	0.0737	-0.0317	1.0352	-3.2849	-0.3461	16.1279	18.4200 
280.303	0.0771	-0.0313	1.0352	-3.2959	-0.3461	16.1499	18.4000 
280.314	0.0771	-0.0308	1.0342	-3.3069	-0.3406	16.1719	18.4100 
280.315	0.0757	-0.0288	1.0352	-3.3124	-0.3406	16.1938	18.4200 
280.315	0.0728	-0.0259	1.0337	-3.3124	-0.3406	16.2158	18.4200 
280.315	0.0757	-0.0264	1.0244	-3.3124	-0.3516	16.2488	18.4300 
280.321	0.0776	-0.0308	1.0293	-3.3179	-0.3571	16.2762	18.4200 
280.336	0.0791	-0.0259	1.0386	-3.3344	-0.3516	16.3037	18.4200 
280.357	0.0859	-0.0259	1.0430	-3.3508	-0.3571	16.3422	18.4300 
280.381	0.0889	-0.0303	1.0391	-3.3618	-0.3680	16.3861	18.4200 
280.401	0.0825	-0.0288	1.0352	-3.3673	-0.3625	16.4191	18.4300 
280.512	0.0757	-0.0273	1.0308	-3.3728	-0.3516	16.4465	18.4300