StartTime: 2018-11-17 10:31:15.081
Time(s)	ax(g)	ay(g)	az(g)	AngleX(deg)	AngleY(deg)	AngleZ(deg)	T(Â°) 
61.653	0.1318	0.0928	1.0283	3.1696	-3.4442	-1.9995	20.8700 
61.667	0.1284	0.0933	1.0171	3.1311	-3.4387	-1.9885	20.8600 
61.688	0.1216	0.0913	1.0176	3.0981	-3.4332	-2.0105	20.8700 
61.710	0.1226	0.0957	1.0176	3.0762	-3.4387	-2.0654	20.8500 
61.825	0.1289	0.0957	1.0229	3.0597	-3.4387	-2.1423	20.8500 
61.831	0.1318	0.0894	1.0356	3.0267	-3.4222	-2.2412	20.8400 
61.831	0.1235	0.0825	1.0381	2.9883	-3.3948	-2.3840	20.8700 
61.831	0.1035	0.0874	1.0278	2.9608	-3.3508	-2.5763	20.8800 
61.831	0.1050	0.0859	1.0161	2.9498	-3.3344	-2.7795	20.8600 
61.831	0.1089	0.0781	1.0205	2.9224	-3.3179	-2.9828	20.8700 
61.848	0.1094	0.0703	1.0254	2.8839	-3.3014	-3.1750	20.8500 
61.866	0.1177	0.0703	1.0303	2.8345	-3.2849	-3.3563	20.8600 
61.888	0.1206	0.0669	1.0337	2.7905	-3.2794	-3.5266	20.8700 
61.906	0.1196	0.0708	1.0269	2.7466	-3.2794	-3.6859	20.8700 
61.926	0.1162	0.0703	1.0220	2.7081	-3.2794	-3.8342	20.8600 
62.026	0.1123	0.0752	1.0166	2.6697	-3.2684	-3.9716	20.8500 
62.038	0.1128	0.0698	1.0200	2.6147	-3.2465	-4.0814	20.8500 
62.038	0.1035	0.0742	1.0288	2.5488	-3.2135	-4.1803	20.8600 
62.038	0.0991	0.0767	1.0264	2.4939	-3.1805	-4.2682	20.8500 
62.038	0.0977	0.0752	1.0254	2.4500	-3.1586	-4.3506	20.8600 
62.045	0.1006	0.0728	1.0288	2.4115	-3.1476	-4.4220	20.8700 
62.064	0.1118	0.0815	1.0283	2.3730	-3.1311	-4.4769	20.8500 
62.085	0.1108	0.0923	1.0225	2.3456	-3.1091	-4.5374	20.8700 
62.105	0.1040	0.1006	1.0156	2.3401	-3.0762	-4.6143	20.8600 
62.126	0.1006	0.1011	1.0181	2.3456	-3.0432	-4.7131	20.8600 
62.235	0.0903	0.0947	1.0317	2.3566	-3.0048	-4.8175	20.8700 
62.246	0.0820	0.0967	1.0327	2.3840	-2.9553	-4.9329	20.8500 
62.246	0.0952	0.1079	1.0381	2.4115	-2.9004	-5.0262	20.8700 
62.247	0.1001	0.1167	1.0366	2.4335	-2.8455	-5.1251	20.8600 
62.247	0.0898	0.1157	1.0186	2.4445	-2.7905	-5.2515	20.8600 
62.253	0.0830	0.1157	1.0122	2.4554	-2.7356	-5.4272	20.8600 
62.267	0.0703	0.0977	1.0210	2.4500	-2.6752	-5.6415	20.8700 
62.308	0.0713	0.0908	1.0176	2.4390	-2.6093	-5.8722	20.8700 
62.321	0.0742	0.0815	1.0020	2.4225	-2.5543	-6.0864	20.8800 
62.327	0.0762	0.0693	0.9995	2.4060	-2.5104	-6.2787	20.8600 
62.345	0.0898	0.0669	1.0024	2.3840	-2.4829	-6.4435	20.8700 
62.468	0.1055	0.0698	1.0068	2.3730	-2.4774	-6.5808	20.8700 
62.474	0.1196	0.0576	1.0366	2.3676	-2.4884	-6.6852	20.8400 
62.474	0.1226	0.0630	1.0688	2.3730	-2.5104	-6.7566	20.8500 
62.474	0.1245	0.0898	1.0811	2.3895	-2.5214	-6.7950	20.8600 
62.474	0.1333	0.1147	1.0591	2.4005	-2.5214	-6.8115	20.8600 
62.474	0.1572	0.1450	1.0034	2.4115	-2.4994	-6.8115	20.8800 
62.482	0.1616	0.1299	0.9663	2.4115	-2.4719	-6.8005	20.8700 
62.502	0.1445	0.0859	0.9375	2.3895	-2.4664	-6.7896	20.8700 
62.622	0.1382	0.0596	0.9766	2.3511	-2.4884	-6.7731	20.8700 
62.629	0.1611	0.0605	1.0737	2.2852	-2.5488	-6.7126	20.8600 
62.629	0.1743	0.0752	1.1040	2.2302	-2.6312	-6.6138	20.8600 
62.629	0.1753	0.0962	1.0977	2.2083	-2.7136	-6.4709	20.8700 
62.629	0.1689	0.1113	1.0522	2.2083	-2.7686	-6.3007	20.8500 
62.629	0.1631	0.1187	1.0166	2.2137	-2.7850	-6.1249	20.8700 
62.642	0.1592	0.1372	0.9727	2.2302	-2.7905	-5.9491	20.8800 
62.662	0.1572	0.1367	0.9644	2.2467	-2.8015	-5.7953	20.8600 
62.683	0.1528	0.1143	0.9746	2.2467	-2.8290	-5.6635	20.8500 
62.704	0.1479	0.0991	0.9844	2.2302	-2.8619	-5.5371	20.8500 
62.734	0.1587	0.1006	0.9937	2.1973	-2.9114	-5.3833	20.8600 
62.745	0.1704	0.1079	1.0039	2.1588	-2.9663	-5.1910	20.8400 
62.761	0.2070	0.1255	1.0166	2.1204	-3.0322	-4.9548	20.8600 
62.784	0.2236	0.1431	1.0146	2.0929	-3.1201	-4.6967	20.8600 
62.893	0.2168	0.1245	1.0322	2.0490	-3.2025	-4.4604	20.8600 
62.908	0.1968	0.1001	1.0356	1.9940	-3.2794	-4.2517	20.8700 
62.908	0.1772	0.0977	1.0215	1.9556	-3.3344	-4.0540	20.8500 
62.909	0.1733	0.1177	1.0103	1.9446	-3.3838	-3.8342	20.8700 
62.909	0.1982	0.1431	0.9902	1.9446	-3.4442	-3.5706	20.8500 
62.915	0.2085	0.1431	0.9858	1.9446	-3.4991	-3.3014	20.8600 
62.929	0.2036	0.1274	0.9922	1.9446	-3.5376	-3.0322	20.8500 
63.055	0.1978	0.1152	1.0068	1.9336	-3.5541	-2.7795	20.8600 
63.061	0.1938	0.1055	1.0239	1.9226	-3.5651	-2.5159	20.8500 
63.061	0.2007	0.1128	1.0317	1.9281	-3.5706	-2.2192	20.8500 
63.061	0.2212	0.1338	1.0381	1.9501	-3.5760	-1.8896	20.8600 
63.061	0.2363	0.1597	1.0371	1.9830	-3.5980	-1.5381	20.8500 
63.061	0.2524	0.1782	1.0376	2.0215	-3.6310	-1.1865	20.8600 
63.061	0.2549	0.1860	1.0347	2.0709	-3.6530	-0.8459	20.8500 
63.088	0.2441	0.1709	1.0327	2.1368	-3.6639	-0.5328	20.8500 
63.100	0.2275	0.1484	1.0425	2.2028	-3.6639	-0.2197	20.8500 
63.120	0.2036	0.1333	1.1299	2.2412	-3.6310	0.0934	20.8700 
63.140	0.2134	0.1553	1.1377	2.2687	-3.5870	0.4340	20.8600 
63.160	0.2197	0.1260	1.0854	2.3016	-3.5541	0.7910	20.8500 
63.265	0.1958	0.1040	1.0864	2.3346	-3.4882	1.0822	20.8500 
63.278	0.1362	0.0605	1.0762	2.3785	-3.4387	1.3239	20.8700 
63.278	0.1055	0.0605	1.0376	2.4719	-3.4387	1.5381	20.8700 
63.278	0.0933	0.0171	0.9736	2.5873	-3.5156	1.7908	20.8600 
63.278	0.0742	-0.0156	0.9722	2.6697	-3.6255	2.0544	20.8500 
63.284	0.0830	-0.0220	1.0386	2.7136	-3.7573	2.2906	20.8500 
63.299	0.0850	-0.0176	1.0630	2.7521	-3.9056	2.5433	20.8500 
63.322	0.0322	-0.0161	1.1079	2.8290	-3.9880	2.7905	20.8400 
63.344	0.0020	-0.0083	1.1230	2.8894	-3.9221	2.9663	20.8300 
63.370	0.0107	0.0278	1.1108	2.9004	-3.7079	3.0707	20.8500 
63.470	0.0479	0.0317	1.0752	2.8674	-3.4607	3.1311	20.8500 
63.482	0.0605	-0.0098	1.0366	2.8015	-3.2629	3.1421	20.8300 
63.482	0.0493	-0.0127	1.0195	2.7356	-3.1036	3.1311	20.8300 
63.482	0.0352	0.0371	0.9609	2.7521	-2.9498	3.0927	20.8300 
63.482	0.0415	0.0679	0.9189	2.8125	-2.7850	3.0597	20.8400 
63.488	0.0654	0.0952	0.9209	2.8564	-2.5928	3.0322	20.8300 
63.504	0.0693	0.0981	0.9321	2.8564	-2.3840	2.9663	20.8300 
63.525	0.0552	0.1045	0.9370	2.8674	-2.1643	2.8345	20.8200 
63.537	0.0444	0.1128	0.9287	2.9224	-1.9666	2.6587	20.8100 
63.556	0.0376	0.1069	0.9185	2.9718	-1.7853	2.4554	20.8300 
63.669	0.0166	0.0874	0.9536	2.9773	-1.5985	2.2577	20.8200 
63.675	0.0059	0.0903	0.9971	2.9388	-1.3898	2.0709	20.8000 
63.675	0.0103	0.1226	1.0454	2.8949	-1.1755	1.9281	20.8200 
63.675	0.0366	0.1660	1.0298	2.8455	-0.9778	1.8018	20.8000 
63.675	0.0576	0.2119	0.9756	2.7850	-0.7910	1.6205	20.8000 
63.681	0.0527	0.1978	0.9434	2.6807	-0.6317	1.3788	20.7900 
63.704	0.0166	0.1333	0.9307	2.5049	-0.5054	1.0986	20.7900 
63.726	-0.0083	0.1040	0.9434	2.3181	-0.4285	0.8075	20.8000 
63.738	-0.0107	0.1123	0.9863	2.1643	-0.4010	0.5713	20.7900 
63.756	0.0088	0.1450	0.9990	2.0819	-0.4449	0.4065	20.7900 
63.777	0.0503	0.1709	1.0264	2.0270	-0.5273	0.2747	20.8000 
63.882	0.0547	0.1699	1.0532	1.9666	-0.6152	0.1373	20.7900 
63.894	0.0391	0.1587	1.0786	1.9061	-0.6592	0.0110	20.7900 
63.894	0.0347	0.1572	1.0864	1.8567	-0.6812	-0.0879	20.7900 
63.894	0.0640	0.1660	1.0972	1.8182	-0.7306	-0.1868	20.7800 
63.894	0.1050	0.1602	1.1440	1.8018	-0.8405	-0.2802	20.7700 
63.900	0.1240	0.1313	1.2114	1.7688	-1.0547	-0.3680	20.7900 
63.916	0.0786	0.0610	1.2295	1.7029	-1.2469	-0.4669	20.7700 
64.035	0.0557	0.0044	1.2246	1.6425	-1.4008	-0.4944	20.7800 
64.043	0.0815	-0.0068	1.1533	1.6699	-1.5820	-0.3571	20.7800 
64.044	0.1089	-0.0088	1.0552	1.7303	-1.7358	-0.1154	20.7600 
64.044	0.1406	-0.0273	0.9878	1.7688	-1.8567	0.1099	20.7800 
64.044	0.1387	-0.0884	1.0117	1.7468	-1.8787	0.2527	20.7700 
64.044	0.1411	-0.1245	1.0356	1.6754	-1.8182	0.2802	20.7700 
64.053	0.1284	-0.1318	1.0659	1.5710	-1.7358	0.2032	20.7500 
64.074	0.1060	-0.1377	1.0811	1.4777	-1.6754	0.0659	20.7600 
64.094	0.0923	-0.1187	1.1392	1.4008	-1.6479	-0.0824	20.7600 
64.114	0.0972	-0.0718	1.1240	1.3513	-1.6370	-0.1978	20.7700 
64.143	0.1113	-0.0049	1.0288	1.3623	-1.6425	-0.2472	20.7900 
64.242	0.1362	0.0073	0.9429	1.4392	-1.7139	-0.1978	20.7600 
64.255	0.1372	0.0293	0.8862	1.5216	-1.7908	-0.1483	20.7600 
64.256	0.1304	0.0293	0.8887	1.5710	-1.8292	-0.1538	20.7700 
64.256	0.1191	0.0239	0.9063	1.5710	-1.8182	-0.2142	20.7600 
64.256	0.1230	0.0229	0.9092	1.5381	-1.7963	-0.2911	20.7600 
64.262	0.1328	0.0117	0.9224	1.4667	-1.7578	-0.3571	20.7500 
64.274	0.1328	0.0156	0.9272	1.3788	-1.7194	-0.3955	20.7600 
64.296	0.1367	0.0391	0.9370	1.3239	-1.6864	-0.3790	20.7600 
64.321	0.1440	0.0581	0.9531	1.2854	-1.6589	-0.3351	20.7600 
64.342	0.1655	0.0923	0.9658	1.2634	-1.6644	-0.2692	20.7600 
64.449	0.1753	0.0806	0.9575	1.2469	-1.6974	-0.1978	20.7600 
64.461	0.1528	0.0615	0.9849	1.2195	-1.7194	-0.1263	20.7600 
64.461	0.1328	0.0566	0.9976	1.2030	-1.7303	-0.0549	20.7500 
64.461	0.1367	0.0767	1.0181	1.2140	-1.7578	0.0549	20.7600 
64.461	0.1675	0.0869	1.0566	1.2360	-1.8237	0.2197	20.7400 
64.462	0.2285	0.1411	1.0669	1.2964	-1.9501	0.4340	20.7400 
64.471	0.2563	0.1494	1.0615	1.3898	-2.1094	0.6647	20.7400 
64.491	0.2539	0.1616	1.0806	1.4777	-2.2247	0.8295	20.7400 
64.511	0.2549	0.1519	1.0718	1.5656	-2.3016	0.9558	20.7300 
64.531	0.2100	0.0835	1.0547	1.6534	-2.3126	1.0876	20.7200 
64.554	0.0996	-0.0117	1.1978	1.7249	-2.2357	1.2469	20.7300 
64.662	0.0947	0.0073	1.3105	1.8402	-2.1863	1.5326	20.7300 
64.674	0.1392	0.0527	1.2778	2.0215	-2.1753	1.9281	20.7400 
64.674	0.1177	0.0674	1.2241	2.2577	-2.1423	2.3016	20.7400 
64.674	0.0625	0.0908	1.0410	2.5159	-2.0819	2.5873	20.7300 
64.674	-0.0020	0.0269	0.9819	2.6752	-1.9446	2.7905	20.7300 
64.680	-0.0615	-0.0977	1.0225	2.6807	-1.8292	2.9993	20.7200 
64.696	-0.0918	-0.1152	1.0996	2.5653	-1.7084	3.2300	20.7300 
64.719	-0.0371	-0.0576	1.1216	2.3566	-1.5710	3.4442	20.7100 
64.743	-0.0088	-0.0366	1.0723	2.1149	-1.4008	3.6530	20.7200 
64.750	0.0186	-0.0322	1.0273	1.8402	-1.2085	3.8397	20.7100 
64.770	0.0386	-0.0400	1.0000	1.5381	-1.0437	3.9990	20.7000 
64.863	0.0566	-0.0181	0.9536	1.2744	-0.9338	4.0979	20.6900 
64.875	0.0498	0.0039	0.9009	1.0657	-0.8679	4.1089	20.7000 
64.875	0.0063	0.0127	0.8975	0.9174	-0.8020	4.0265	20.7000 
64.875	-0.0161	0.0161	0.9219	0.7910	-0.7086	3.9166	20.7100 
64.881	-0.0181	0.0127	0.9316	0.6757	-0.5933	3.8123	20.6900 
64.895	-0.0044	0.0186	0.9443	0.5603	-0.4724	3.7134	20.7000 
64.916	0.0078	0.0513	0.9785	0.4285	-0.3625	3.5870	20.7300 
64.940	0.0127	0.0762	0.9746	0.3351	-0.2747	3.4497	20.7000 
64.948	0.0049	0.0732	0.9644	0.2527	-0.1868	3.2959	20.7000 
65.075	0.0010	0.0562	0.9771	0.1208	-0.0824	3.1036	20.7000 
65.081	-0.0010	0.0464	0.9604	0.0165	-0.0110	2.9333	20.6700 
65.081	0.0039	0.0444	0.9473	-0.0220	0.0000	2.8125	20.6700 
65.081	-0.0063	0.0493	0.9395	-0.0055	-0.0220	2.7081	20.6800 
65.081	-0.0176	0.0723	0.9453	0.1044	-0.0714	2.6477	20.6800 
65.081	-0.0073	0.1064	0.9941	0.2747	-0.1483	2.6147	20.6900 
65.088	0.0293	0.1392	1.0366	0.4230	-0.2197	2.5928	20.6700 
65.112	0.0615	0.1499	1.0635	0.5383	-0.2802	2.5488	20.6700 
65.133	0.0571	0.1450	1.0649	0.6372	-0.2966	2.4554	20.6700 
65.156	0.0215	0.1387	1.0786	0.7526	-0.2911	2.3236	20.6700 
65.179	-0.0073	0.1460	1.0732	0.8954	-0.2911	2.1478	20.6700 
65.294	-0.0044	0.1426	1.1157	1.0162	-0.3131	1.9226	20.6600 
65.307	0.0552	0.1143	1.2388	1.0327	-0.3955	1.6315	20.6600 
65.308	0.1338	0.0405	1.2632	1.0437	-0.6427	1.3458	20.6500 
65.308	0.1128	-0.0029	1.2803	1.1700	-0.9393	1.0547	20.6500 
65.308	0.1465	-0.0698	1.2070	1.3513	-1.2469	0.8734	20.6300 
65.308	0.1733	-0.0879	1.1392	1.5106	-1.5106	0.8350	20.6400 
65.314	0.1963	-0.0762	1.0293	1.5985	-1.6919	0.8789	20.6400 
65.328	0.1958	-0.0771	1.0532	1.5985	-1.7743	0.8734	20.6400 
65.349	0.1577	-0.0840	1.1221	1.5656	-1.8073	0.7526	20.6300 
65.374	0.1235	-0.0771	1.1177	1.5546	-1.8182	0.5273	20.6400 
65.393	0.0854	-0.0649	1.0298	1.5491	-1.8018	0.2582	20.6200 
65.499	0.0728	-0.0557	0.9512	1.5710	-1.7798	0.0604	20.6300 
65.510	0.0952	-0.0464	0.8848	1.5930	-1.7633	0.0000	20.6200 
65.511	0.1216	-0.0229	0.8745	1.5930	-1.7578	0.0110	20.6300 
65.511	0.1475	0.0278	0.8604	1.6150	-1.7358	0.0385	20.6300 
65.511	0.1611	0.0488	0.8608	1.6644	-1.7194	0.0549	20.6200 
65.517	0.1572	0.0264	0.9033	1.6644	-1.6864	0.0330	20.6200 
65.531	0.1445	0.0068	0.9429	1.6095	-1.6260	-0.0165	20.6300 
65.553	0.1401	0.0029	0.9785	1.5051	-1.5546	-0.0769	20.6100 
65.579	0.1499	0.0244	0.9937	1.4117	-1.4886	-0.1044	20.6200 
65.585	0.1558	0.0537	0.9961	1.3623	-1.4337	-0.0989	20.6200 
65.706	0.1577	0.0830	0.9878	1.3293	-1.3953	-0.0879	20.6100 
65.724	0.1499	0.0674	0.9893	1.3019	-1.3568	-0.0769	20.6200 
65.725	0.1372	0.0659	1.0103	1.2854	-1.3403	-0.0494	20.6100 
65.725	0.1431	0.0703	1.0132	1.2579	-1.3513	0.0055	20.6000 
65.725	0.1567	0.0693	0.9932	1.2469	-1.3843	0.1099	20.6000 
65.725	0.1533	0.0693	1.0073	1.2744	-1.4227	0.2527	20.6200 
65.742	0.1504	0.0923	1.0327	1.3348	-1.4502	0.4614	20.6000 
65.751	0.1772	0.1299	1.0156	1.4227	-1.4777	0.7251	20.6100 
65.764	0.2192	0.1519	1.0068	1.4996	-1.4886	0.9998	20.6100 
65.789	0.2168	0.1421	1.0054	1.5436	-1.4557	1.2030	20.6100 
65.810	0.1631	0.0625	1.0029	1.5875	-1.3513	1.3239	20.5900 
65.918	0.0947	-0.0024	1.0537	1.6919	-1.2085	1.4557	20.6000 
65.936	0.0298	-0.0107	1.2734	1.9171	-1.0986	1.6974	20.6200 
65.936	0.1006	0.0884	1.2793	2.2467	-1.0602	2.0764	20.5900 
65.936	0.1616	0.1191	1.2007	2.6038	-0.9888	2.5543	20.5900 
65.936	0.0991	0.1187	1.1846	2.9114	-0.8185	2.9608	20.5900 
65.936	-0.0313	0.0957	1.0903	3.0981	-0.5548	3.1860	20.6100 
65.952	-0.0923	-0.0127	1.0313	3.0707	-0.2527	3.2574	20.6100 
65.974	-0.1675	-0.1260	1.0767	2.9169	-0.0220	3.2629	20.6000 
66.073	-0.1445	-0.0986	1.1304	2.7191	0.1099	3.3344	20.5700 
66.086	-0.0664	-0.0356	1.1338	2.5214	0.1593	3.5706	20.5900 
66.086	-0.0176	-0.0010	1.1235	2.3676	0.1483	3.9386	20.6000 
66.086	0.0469	0.0542	1.0254	2.2412	0.0989	4.3341	20.5900 
66.087	0.0708	0.0820	0.9414	2.1204	0.0385	4.6747	20.5800 
66.093	0.0640	0.0806	0.8647	1.9775	-0.0330	4.8999	20.5800 
66.105	0.0386	0.0684	0.8452	1.8073	-0.1099	4.9823	20.5800 
66.130	0.0034	0.0503	0.8716	1.6370	-0.1813	4.9768	20.5800 
66.153	0.0039	0.0464	0.9121	1.4612	-0.2417	4.9603	20.5800 
66.162	0.0410	0.0762	0.9497	1.2744	-0.2911	4.9384	20.5600 
66.289	0.0752	0.0884	0.9551	1.0437	-0.3296	4.8779	20.5600 
66.296	0.0791	0.0845	0.9517	0.8020	-0.3296	4.7406	20.5700 
66.296	0.0518	0.0542	0.9551	0.5713	-0.3131	4.5703	20.5600 
66.296	0.0234	0.0264	0.9644	0.3680	-0.2802	4.3561	20.5500 
66.296	0.0098	0.0337	0.9727	0.2252	-0.2692	4.1528	20.5500 
66.296	0.0093	0.0752	0.9766	0.1593	-0.2637	3.9825	20.5500 
66.302	0.0386	0.1045	0.9858	0.1208	-0.2637	3.8232	20.5600 
66.322	0.0693	0.1431	0.9814	0.0989	-0.2802	3.6420	20.5500 
66.344	0.0576	0.1533	0.9961	0.0934	-0.2747	3.3838	20.5500 
66.369	0.0513	0.1230	1.0615	0.0769	-0.2747	3.0762	20.5400 
66.389	0.0239	0.1104	1.0898	0.0879	-0.3021	2.7850	20.5500 
66.498	-0.0156	0.1201	1.1035	0.1428	-0.3021	2.5159	20.5500 
66.511	-0.0049	0.1353	1.0889	0.1868	-0.2692	2.2797	20.5500 
66.511	0.0122	0.1460	1.0820	0.1868	-0.1868	2.0544	20.5500 
66.511	0.0342	0.1235	1.1450	0.1263	-0.0714	1.7633	20.5400 
66.511	0.0869	0.1064	1.2036	0.0385	-0.0439	1.4392	20.5400 
66.511	0.0654	0.0488	1.1401	0.0714	-0.1318	1.1371	20.5400 
66.520	0.0625	-0.0010	1.1436	0.1428	-0.2472	0.8459	20.5500 
66.539	0.1279	-0.0786	1.1553	0.1813	-0.3900	0.6976	20.5400 
66.560	0.1948	-0.1201	1.1128	0.1758	-0.5603	0.7251	20.5400 
66.579	0.2314	-0.1504	1.0698	0.0879	-0.6647	0.7690	20.5300 
66.601	0.2148	-0.2021	1.1406	-0.1044	-0.6372	0.6427	20.5300 
66.705	0.1035	-0.2197	1.2695	-0.2747	-0.5164	0.3351	20.5300 
66.718	0.0566	-0.1685	1.2686	-0.3186	-0.3790	-0.0165	20.5200 
66.719	0.0776	-0.0591	1.1387	-0.2856	-0.2362	-0.3296	20.5300 
66.719	0.0981	-0.0054	1.0415	-0.2087	-0.1208	-0.5603	20.5300 
66.719	0.1045	0.0073	0.9204	-0.1044	-0.0165	-0.7306	20.5200 
66.725	0.1089	0.0044	0.8447	0.0110	0.0385	-0.8295	20.5200 
66.739	0.0835	0.0093	0.7935	0.1318	0.0824	-0.9009	20.5000 
66.764	0.0679	0.0068	0.8076	0.1758	0.1593	-1.0052	20.5200 
66.786	0.0864	-0.0088	0.8579	0.1099	0.2637	-1.1261	20.5200 
66.809	0.1060	-0.0166	0.8901	0.0055	0.3461	-1.2195	20.5000 
66.914	0.1172	-0.0181	0.9121	-0.1099	0.3900	-1.2689	20.4900 
66.926	0.1123	-0.0068	0.9312	-0.2472	0.4230	-1.3019	20.5000 
66.927	0.1167	-0.0215	0.9790	-0.4285	0.4504	-1.2909	20.4900 
66.927	0.1187	-0.0049	0.9980	-0.5878	0.4614	-1.2250	20.4900 
66.927	0.1299	0.0229	1.0112	-0.6647	0.4504	-1.0767	20.4900 
66.927	0.1289	0.0449	1.0283	-0.6757	0.4395	-0.8954	20.4900 
66.948	0.1177	0.0425	1.0195	-0.6152	0.4449	-0.7251	20.4800 
66.958	0.0972	0.0112	1.0298	-0.5219	0.4504	-0.5603	20.5000 
66.977	0.0947	0.0054	1.0386	-0.3790	0.4395	-0.3845	20.4900 
66.997	0.1152	0.0508	1.0459	-0.1483	0.4285	-0.1758	20.4900 
67.019	0.1821	0.1470	1.0308	0.1154	0.4120	0.0110	20.4900 
67.119	0.2007	0.1763	1.0024	0.3735	0.4010	0.1263	20.4900 
67.133	0.1382	0.0610	1.0181	0.5933	0.3735	0.1923	20.4900 
67.133	0.0464	-0.0474	1.1582	0.8075	0.3296	0.2582	20.4900 
67.134	0.0400	0.0103	1.2852	1.0767	0.2527	0.4230	20.5000 
67.134	0.0420	0.0479	1.2422	1.4447	0.2087	0.7141	20.4700 
67.142	0.0083	0.1377	1.1147	1.7798	0.2307	0.9833	20.4900 
67.159	-0.0469	0.0767	1.0737	1.9501	0.3296	1.1591	20.4800 
67.187	-0.1187	-0.1064	1.1255	1.9226	0.3735	1.3129	20.4900 
67.204	-0.1582	-0.1724	1.2109	1.8677	0.3186	1.5436	20.4700 
67.224	-0.1030	-0.0376	1.2212	1.8402	0.2307	1.8732	20.4700 
67.321	-0.0029	0.0371	1.1597	1.8073	0.1099	2.3291	20.4700 
67.334	0.0811	0.0815	1.0620	1.7633	-0.0330	2.8400	20.4600 
67.334	0.1011	0.0781	0.9624	1.6864	-0.2087	3.3014	20.4600 
67.334	0.0693	0.0625	0.8511	1.5820	-0.3900	3.6365	20.4700 
67.334	0.0239	0.0313	0.8247	1.4612	-0.5438	3.8672	20.4600 
67.340	-0.0200	0.0122	0.8545	1.3129	-0.6207	3.9880	20.4600 
67.355	-0.0166	0.0112	0.8989	1.1481	-0.6207	4.0594	20.4600 
67.379	0.0034	0.0020	0.9448	0.9778	-0.5823	4.1089	20.4400 
67.398	0.0190	0.0088	0.9727	0.8185	-0.5219	4.1254	20.4500 
67.420	0.0347	0.0576	0.9824	0.7141	-0.4669	4.1199	20.4400 
67.549	0.0332	0.0869	0.9639	0.6427	-0.3845	4.0814	20.4200 
67.555	0.0322	0.0850	0.9478	0.5933	-0.2802	4.0045	20.4300 
67.555	0.0239	0.0801	0.9683	0.5548	-0.1978	3.9331	20.4100 
67.555	0.0117	0.0767	0.9956	0.4834	-0.1263	3.8562	20.4200 
67.555	0.0127	0.0938	1.0186	0.4010	-0.0439	3.7299	20.4300 
67.555	0.0229	0.1265	1.0215	0.3406	0.0165	3.5596	20.4300 
67.555	0.0391	0.1416	1.0078	0.2911	0.0385	3.3728	20.4300 
67.586	0.0278	0.1255	1.0205	0.2692	0.0220	3.1586	20.4200 
67.593	-0.0029	0.1216	1.0327	0.2856	-0.0110	2.9224	20.4200 
67.731	-0.0142	0.1182	1.0337	0.3351	-0.0549	2.6971	20.4200 
67.746	0.0034	0.1294	1.0239	0.3955	-0.1099	2.5104	20.4100 
67.747	0.0122	0.1348	1.0161	0.4889	-0.1703	2.3456	20.4200 
67.747	0.0435	0.1147	1.0654	0.5933	-0.2582	2.1918	20.4000 
67.747	0.0801	0.0747	1.1826	0.6372	-0.3625	2.0215	20.3900 
67.747	0.1313	0.0557	1.2275	0.7086	-0.5109	1.8347	20.3900 
67.747	0.1265	0.0127	1.2432	0.8020	-0.6592	1.6425	20.3900 
67.769	0.1348	-0.0571	1.1704	0.9174	-0.8240	1.5875	20.3900 
67.776	0.1372	-0.1069	1.1299	1.0107	-0.9338	1.6699	20.3900 
67.795	0.1621	-0.0962	1.0581	1.0327	-0.9503	1.7963	20.3700 
67.815	0.1606	-0.0757	1.0649	0.9943	-0.8624	1.8182	20.3800 
67.835	0.1523	-0.1099	1.1523	0.9064	-0.7690	1.7139	20.4000 
67.935	0.1147	-0.1182	1.1973	0.8130	-0.6866	1.5326	20.3800 
67.946	0.0649	-0.0615	1.1489	0.7526	-0.5933	1.2689	20.3800 
67.947	0.0464	-0.0435	1.0659	0.7031	-0.4834	1.0272	20.3500 
67.947	0.0459	-0.0420	0.9639	0.6592	-0.3680	0.8569	20.3800 
67.947	0.0630	-0.0313	0.9102	0.6317	-0.2856	0.7526	20.3600 
67.953	0.0913	-0.0117	0.8545	0.6537	-0.2637	0.7086	20.3700 
67.973	0.1035	0.0093	0.8384	0.7141	-0.3131	0.6702	20.3800 
67.993	0.1094	0.0005	0.8506	0.7581	-0.4010	0.6317	20.3700 
68.016	0.1025	-0.0068	0.8799	0.7526	-0.4779	0.6152	20.3500 
68.036	0.1074	-0.0137	0.9316	0.7031	-0.5219	0.6317	20.3600 
68.141	0.1147	0.0103	0.9521	0.6317	-0.5493	0.6702	20.3600 
68.155	0.1450	0.0381	0.9707	0.5768	-0.5933	0.7471	20.3600 
68.155	0.1592	0.0376	0.9907	0.5164	-0.6702	0.8624	20.3500 
68.155	0.1592	0.0317	1.0317	0.4559	-0.7471	0.9888	20.3600 
68.156	0.1582	0.0400	1.0396	0.4175	-0.8020	1.1481	20.3500 
68.163	0.1563	0.0615	1.0317	0.4175	-0.8405	1.3568	20.3400 
68.176	0.1582	0.0757	1.0151	0.4559	-0.8624	1.6260	20.3400 
68.202	0.1489	0.0801	1.0239	0.5219	-0.8624	1.9501	20.3400 
68.222	0.1514	0.1025	1.0264	0.6262	-0.8514	2.2852	20.3600 
68.230	0.1685	0.1372	1.0337	0.7526	-0.8569	2.6257	20.3500 
68.250	0.1836	0.1343	1.0146	0.8954	-0.8734	2.9553	20.3300 
68.375	0.1787	0.1260	1.0327	1.0162	-0.8624	3.2190	20.3400 
68.381	0.1724	0.1108	1.0171	1.1206	-0.8350	3.4277	20.3500 
68.381	0.0962	0.0117	1.0190	1.2579	-0.7910	3.6420	20.3300 
68.382	0.0254	-0.0576	1.1387	1.4557	-0.7635	3.9276	20.3400 
68.382	0.0439	0.0479	1.2080	1.7688	-0.8295	4.3726	20.3500 
68.382	0.0547	0.0845	1.0820	2.1863	-1.0162	4.9878	20.3400 
68.388	0.0527	0.1372	1.0723	2.5598	-1.2085	5.6580	20.3500 
68.413	0.0347	0.1069	1.0859	2.7356	-1.3184	6.1469	20.3400 
68.530	-0.0493	-0.0176	1.1416	2.6642	-1.2964	6.3611	20.3100 
68.536	-0.1338	-0.0859	1.2158	2.5653	-1.2469	6.4600	20.3200 
68.536	-0.1226	-0.0952	1.2646	2.4554	-1.2360	6.6083	20.3100 
68.537	-0.0010	-0.0068	1.1973	2.3071	-1.2909	6.8665	20.3200 
68.537	0.0674	0.0425	1.1099	2.1863	-1.4008	7.1796	20.3200 
68.537	0.1235	0.0894	0.9902	2.1149	-1.5601	7.4652	20.3100 
68.548	0.1284	0.1167	0.9048	2.0544	-1.7303	7.6355	20.3000 
68.568	0.0874	0.1040	0.8447	1.9446	-1.8622	7.6630	20.3000 
68.589	0.0605	0.0674	0.8452	1.7688	-1.9336	7.5751	20.2900 
68.610	0.0215	0.0303	0.8926	1.5710	-1.9501	7.4158	20.2900 
68.632	0.0176	0.0171	0.9082	1.3678	-1.9281	7.2290	20.3000 
68.738	0.0415	0.0225	0.9370	1.1591	-1.9061	7.0587	20.3000 
68.753	0.0552	0.0371	0.9663	0.9613	-1.8732	6.8719	20.3000 
68.753	0.0610	0.0537	0.9922	0.7965	-1.8402	6.6797	20.2900 
68.753	0.0532	0.0479	0.9937	0.6702	-1.8182	6.5039	20.2800 
68.753	0.0483	0.0479	0.9907	0.5658	-1.7963	6.3501	20.3000 
68.760	0.0439	0.0605	0.9688	0.4724	-1.7743	6.2073	20.3000 
68.775	0.0347	0.0757	0.9536	0.3955	-1.7633	6.0699	20.2800 
68.795	0.0332	0.0698	0.9629	0.3076	-1.7578	5.9436	20.2900 
68.820	0.0249	0.0708	0.9937	0.2252	-1.7633	5.8173	20.2600 
68.827	0.0264	0.0762	1.0259	0.1593	-1.7743	5.7074	20.2600 
68.847	0.0332	0.0962	1.0771	0.1208	-1.8127	5.6195	20.2700 
68.954	0.0410	0.1016	1.0869	0.1099	-1.8622	5.5316	20.2700 
68.968	0.0479	0.1069	1.0781	0.1593	-1.9006	5.4767	20.2800 
68.968	0.0498	0.1123	1.0635	0.2362	-1.9226	5.4602	20.2800 
68.968	0.0400	0.1421	1.0381	0.3296	-1.9061	5.4547	20.2600 
68.968	0.0493	0.1636	1.0664	0.4120	-1.8457	5.3943	20.2500 
68.974	0.1323	0.1665	1.1572	0.4010	-1.7798	5.1801	20.2600 
68.989	0.1489	0.1338	1.1294	0.4120	-1.7798	4.8340	20.2400 
69.012	0.1343	0.0020	1.1519	0.4230	-1.7963	4.3616	20.2300 
69.031	0.1724	-0.1084	1.1226	0.4449	-1.8842	3.9880	20.2500 
69.055	0.1997	-0.2036	1.1743	0.4504	-2.0380	3.8837	20.2300 
69.169	0.2139	-0.2002	1.1685	0.3845	-2.1973	3.9551	20.2400 
69.182	0.1851	-0.1943	1.1895	0.2307	-2.2742	3.9825	20.2300 
69.183	0.1362	-0.1772	1.2192	0.0714	-2.2577	3.8892	20.2300 
69.183	0.0889	-0.0615	1.1631	0.0385	-2.1698	3.7299	20.2300 
69.183	0.0830	0.0112	1.0293	0.1263	-2.0819	3.6255	20.2300 
69.183	0.0840	0.0283	0.8501	0.2197	-1.9940	3.5706	20.2300 
69.189	0.0894	-0.0020	0.8052	0.2527	-1.9171	3.5706	20.2300 
69.207	0.0962	-0.0122	0.7979	0.2417	-1.8842	3.6035	20.2200 
69.330	0.1030	-0.0127	0.8428	0.1978	-1.8567	3.6639	20.1900 
69.337	0.1411	-0.0225	0.9219	0.0934	-1.8677	3.7628	20.2000 
69.337	0.1616	-0.0146	0.9570	-0.0330	-1.8896	3.9001	20.2100 
69.338	0.1768	-0.0005	0.9844	-0.1813	-1.9116	4.0540	20.2000 
69.338	0.1772	0.0234	0.9868	-0.3131	-1.9116	4.1968	20.2000 
69.338	0.1724	0.0239	0.9917	-0.4449	-1.9116	4.3451	20.1900 
69.346	0.1650	0.0381	0.9878	-0.5493	-1.9061	4.4989	20.1900 
69.367	0.1646	0.0547	0.9961	-0.6262	-1.9171	4.6967	20.2000 
69.387	0.1655	0.0601	0.9922	-0.7196	-1.9391	4.9384	20.1800 
69.411	0.1655	0.0439	0.9868	-0.8185	-1.9336	5.2240	20.1800 
69.429	0.1572	0.0386	0.9878	-0.9064	-1.8677	5.5096	20.1900 
69.540	0.1523	0.0625	0.9746	-0.9558	-1.7688	5.8008	20.1800 
69.552	0.1606	0.0698	0.9902	-0.9888	-1.6699	6.1194	20.1700 
69.553	0.1660	0.0850	1.0098	-1.0217	-1.5601	6.4050	20.1700 
69.553	0.1665	0.1016	1.0405	-1.0272	-1.4337	6.6302	20.1700 
69.553	0.1621	0.0991	1.0552	-1.0052	-1.2964	6.8555	20.1600 
69.553	0.1582	0.1211	1.0610	-0.9448	-1.1591	7.0972	20.1400 
69.564	0.1680	0.1313	1.0420	-0.8459	-1.0547	7.3938	20.1600 
69.582	0.1685	0.1421	1.0137	-0.7196	-0.9558	7.7179	20.1500 
69.601	0.1616	0.1357	0.9971	-0.5823	-0.8514	8.0530	20.1500 
69.624	0.1396	0.0566	1.0913	-0.5054	-0.7196	8.3661	20.1600 
69.649	0.1064	-0.0146	1.2568	-0.5328	-0.5164	8.5913	20.1500 
69.754	0.1045	0.0254	1.3564	-0.5438	-0.3021	8.7781	20.1300 
69.772	0.0430	0.0615	1.2163	-0.4395	-0.0989	8.9868	20.1300 
69.772	-0.0474	0.0161	0.9351	-0.2582	0.0549	9.1681	20.1500 
69.772	-0.0869	-0.0859	0.8950	-0.1978	0.1428	9.3494	20.1600 
69.772	-0.0923	-0.1895	1.1440	-0.4120	0.1044	9.5416	20.1400 
69.789	-0.0601	-0.1230	1.2534	-0.6592	0.0110	9.7559	20.1300 
69.795	-0.0112	-0.0620	1.2144	-0.7910	-0.0879	10.0360	20.1400 
69.811	0.0225	-0.0166	1.1694	-0.8405	-0.2087	10.3052	20.1400 
69.830	0.0728	-0.0200	1.1196	-0.9558	-0.3296	10.4865	20.1400 
69.840	0.0728	-0.0059	1.0781	-1.1591	-0.4010	10.5908	20.1500 
69.860	0.0708	0.0396	0.9575	-1.3293	-0.4614	10.6073	20.1400 
69.968	0.0771	0.0190	0.8779	-1.4392	-0.5823	10.6348	20.1300 
69.981	0.0688	0.0098	0.8169	-1.4886	-0.7635	10.6293	20.1400 
69.981	0.0630	0.0190	0.8413	-1.5271	-0.9393	10.5414	20.1400 
69.981	0.0693	0.0015	0.8613	-1.5985	-1.0822	10.4041	20.1400 
69.981	0.0669	-0.0317	0.8838	-1.7194	-1.1646	10.2338	20.1200 
69.988	0.0483	-0.0054	0.9487	-1.8402	-1.1591	9.9811	20.1200 
70.005	0.0522	0.0186	0.9487	-1.9006	-1.1371	9.7009	20.1100 
70.027	0.0591	0.0269	0.9355	-1.9391	-1.0876	9.3878	20.1200 
70.052	0.0522	0.0400	0.9355	-1.9556	-1.0052	9.0308	20.1200 
70.071	0.0298	0.0488	0.9409	-1.9336	-0.9338	8.6902	20.1100 
70.186	0.0225	0.0698	0.9468	-1.8896	-0.8954	8.3936	20.1000 
70.204	0.0278	0.0566	1.0015	-1.8896	-0.8899	8.1573	20.0900 
70.204	0.0425	0.0601	1.0557	-1.8732	-0.9229	7.8992	20.1100 
70.204	0.0571	0.0845	1.1045	-1.7578	-1.0162	7.6245	20.1100 
70.204	0.0493	0.1211	1.0801	-1.5106	-1.1700	7.3279	20.1100 
70.204	0.0391	0.1260	1.0645	-1.1920	-1.3293	7.0422	20.1000 
70.220	0.0322	0.0986	1.1338	-0.9174	-1.4392	6.7676	20.0900 
70.226	0.1025	0.0518	1.3667	-0.7581	-1.4996	6.4929	20.0800 
70.342	0.2046	0.0503	1.3008	-0.6537	-1.6205	6.2292	20.0900 
70.348	0.2056	-0.0571	1.1563	-0.5054	-1.7358	5.9656	20.0900 
70.348	0.1733	-0.1660	1.1689	-0.3680	-1.8237	5.7458	20.0900 
70.348	0.1655	-0.1694	1.1274	-0.2087	-1.9336	5.6689	20.0800 
70.348	0.1768	-0.1182	1.0972	-0.1483	-1.9501	5.6250	20.0700 
70.348	0.1763	-0.1479	1.1016	-0.2472	-1.8512	5.5096	20.0800 
70.357	0.1318	-0.1797	1.1689	-0.3845	-1.7139	5.3119	20.0800 
70.377	0.0933	-0.1357	1.1909	-0.4504	-1.5820	5.0153	20.0900 
70.398	0.0708	-0.0566	1.0596	-0.4669	-1.4722	4.7186	20.0800 
70.422	0.0654	-0.0508	0.9766	-0.5109	-1.3788	4.4714	20.0800 
70.444	0.0771	-0.0635	0.8970	-0.5713	-1.2799	4.3121	20.0800 
70.551	0.0933	-0.0562	0.8501	-0.6262	-1.1865	4.2517	20.0800 
70.563	0.1035	-0.0239	0.7896	-0.6207	-1.1536	4.2462	20.0700 
70.563	0.1177	-0.0308	0.7905	-0.6152	-1.1646	4.2297	20.0800 
70.563	0.1221	-0.0610	0.8711	-0.7031	-1.1755	4.1858	20.0800 
70.564	0.1147	-0.0508	0.9214	-0.8075	-1.1591	4.1364	20.0800 
70.564	0.1270	-0.0415	0.9370	-0.9338	-1.1536	4.1528	20.0600 
70.584	0.1328	-0.0415	0.9722	-1.0492	-1.1536	4.2297	20.0600 
70.604	0.1479	-0.0288	1.0459	-1.1316	-1.1371	4.3396	20.0700 
70.616	0.1592	0.0044	1.0669	-1.1536	-1.1151	4.4550	20.0600 
70.636	0.1787	0.0371	1.0352	-1.1041	-1.0986	4.5923	20.0600 
70.655	0.1855	0.0493	0.9990	-1.0052	-1.1206	4.7626	20.0300 
70.768	0.1606	0.0503	1.0024	-0.8734	-1.1316	4.9438	20.0400 
70.781	0.1509	0.0571	1.0137	-0.7086	-1.1371	5.1416	20.0500 
70.781	0.1563	0.1001	1.0273	-0.4944	-1.1426	5.3888	20.0500 
70.781	0.1870	0.1616	1.0088	-0.2582	-1.1481	5.6525	20.0400 
70.781	0.2383	0.1885	0.9819	-0.0604	-1.1481	5.8502	20.0400 
70.795	0.2153	0.1196	1.0063	0.0275	-1.1096	5.9161	20.0400 
70.808	0.0898	-0.0195	1.1426	0.1044	-1.0272	5.8118	20.0500 
70.815	0.0503	0.0146	1.2813	0.2747	-0.9668	5.6580	20.0200 
70.835	0.1138	0.1470	1.1670	0.6482	-1.0382	5.5701	20.0500 
70.854	0.0918	0.1001	1.1133	0.9833	-1.0712	5.4767	20.0200 
70.875	-0.0728	-0.0474	1.1265	1.1536	-1.0272	5.2570	20.0200 
70.988	-0.1621	-0.1025	1.1724	1.2030	-0.9229	4.9933	20.0300 
71.002	-0.2021	-0.1528	1.1890	1.1920	-0.8514	4.9109	20.0200 
71.002	-0.1738	-0.1074	1.1973	1.1371	-0.7965	5.0592	20.0100 
71.003	-0.0054	-0.0034	1.2026	1.0052	-0.7635	5.3833	20.0100 
71.003	0.0767	0.0308	1.1636	0.7965	-0.7690	5.7184	20.0000 
71.003	0.0894	0.0444	1.0127	0.5823	-0.8405	5.9546	20.0200 
71.021	0.0684	0.0229	0.9121	0.3625	-0.9778	6.1139	19.9900 
71.046	0.0190	-0.0161	0.8174	0.1428	-1.1426	6.2292	20.0000 
71.053	0.0044	-0.0288	0.7998	-0.0714	-1.2964	6.3226	20.0100 
71.073	0.0273	-0.0156	0.8228	-0.2966	-1.4008	6.4105	20.0000 
71.094	0.0562	-0.0171	0.8359	-0.5164	-1.4612	6.5039	19.9900 
71.199	0.0610	-0.0195	0.8936	-0.6921	-1.4667	6.5259	20.0000 
71.211	0.0493	-0.0308	0.9395	-0.8185	-1.4502	6.4984	20.0000 
71.211	0.0264	0.0000	1.0078	-0.8899	-1.3953	6.3831	19.9900 
71.211	0.0181	0.0381	1.0264	-0.8954	-1.3184	6.2238	19.9900 
71.211	0.0186	0.1172	0.9990	-0.8020	-1.2360	6.0645	20.0000 
71.217	0.0254	0.1421	0.9766	-0.6702	-1.1536	5.8942	19.9800 
71.235	0.0293	0.1304	0.9541	-0.6042	-1.0547	5.7184	19.9900 
71.354	0.0122	0.1060	0.9629	-0.5878	-0.9613	5.4987	19.9700 
71.360	-0.0122	0.0859	1.0190	-0.5823	-0.9009	5.2020	19.9700 
71.360	-0.0117	0.0928	1.0591	-0.5493	-0.9174	4.8889	19.9900 
71.360	-0.0156	0.1299	1.0620	-0.4395	-0.9998	4.6033	19.9700 
71.360	-0.0020	0.1333	1.0532	-0.3076	-1.1041	4.3726	19.9900 
71.360	0.0078	0.1221	1.0601	-0.1758	-1.2085	4.2242	19.9800 
71.371	0.0435	0.0952	1.1309	-0.0714	-1.3184	4.1418	19.9700 
71.391	0.0874	0.0903	1.2310	0.0275	-1.4612	4.0924	19.9900 
71.411	0.1626	0.0776	1.3066	0.1483	-1.6699	4.0540	20.0000 
71.432	0.1694	0.0498	1.3486	0.2582	-1.8842	4.0100	19.9700 
71.456	0.2139	0.0337	1.2388	0.3571	-2.1039	4.0265	19.9800 
71.564	0.2378	0.0229	1.1001	0.3900	-2.2852	4.1199	19.9700 
71.576	0.2554	-0.0483	0.9214	0.2911	-2.3730	4.1748	19.9600 
71.576	0.2607	-0.1216	0.8994	0.0439	-2.3895	4.1199	19.9600 
71.576	0.1685	-0.1885	1.0322	-0.2197	-2.3181	3.8287	19.9600 
71.576	0.0952	-0.1963	1.1143	-0.4230	-2.2302	3.3563	19.9500 
71.583	0.0420	-0.1567	1.1484	-0.5328	-2.1478	2.9388	19.9400 
71.598	0.0503	-0.1284	1.0859	-0.5878	-2.0435	2.7466	19.9300 
71.620	0.0928	-0.0703	0.9746	-0.6317	-1.8951	2.7521	19.9400 
71.631	0.1333	-0.0444	0.9019	-0.6702	-1.7633	2.8564	19.9300 
71.651	0.1626	-0.0044	0.8652	-0.6866	-1.6425	2.9224	19.9300 
71.670	0.1553	0.0068	0.8472	-0.6647	-1.5436	2.9333	19.9100 
71.770	0.1357	0.0049	0.8325	-0.6262	-1.4502	2.8674	19.9300 
71.785	0.1230	-0.0273	0.8657	-0.6537	-1.3568	2.7960	19.9200 
71.785	0.1177	-0.0459	0.9199	-0.7471	-1.2524	2.7411	19.9200 
71.785	0.1279	-0.0249	0.9424	-0.8240	-1.1700	2.7301	19.9200 
71.785	0.1694	0.0078	0.9688	-0.8569	-1.1426	2.8070	19.9000 
71.791	0.1836	0.0396	1.0005	-0.8569	-1.1426	2.9169	19.9200 
71.809	0.2021	0.0596	1.0430	-0.8405	-1.1481	3.0212	19.9000 
71.828	0.1953	0.0479	1.0713	-0.8020	-1.1536	3.1256	19.9300 
71.852	0.1553	0.0444	1.0957	-0.6976	-1.1371	3.2684	19.9000 
71.869	0.1460	0.0737	1.0640	-0.4944	-1.0931	3.4937	19.9000 
71.968	0.1504	0.1157	1.0654	-0.2582	-1.0052	3.8177	19.9100 
71.980	0.1689	0.1514	1.0669	-0.0604	-0.8734	4.1748	19.9000 
71.981	0.2056	0.1807	1.0444	0.0879	-0.7251	4.5209	19.9000 
71.981	0.2061	0.1787	1.0249	0.2197	-0.5768	4.8065	19.9000 
71.981	0.1606	0.1328	0.9893	0.3461	-0.4395	5.0153	19.8900 
71.988	0.1104	0.0742	1.0029	0.4669	-0.3076	5.1746	19.8900 
72.008	0.0029	-0.0229	1.2056	0.5438	-0.1538	5.3064	19.9000 
72.028	0.0073	0.0298	1.3481	0.6152	0.0110	5.4327	19.8900 
72.048	0.0566	0.0942	1.2461	0.7306	0.1318	5.5975	19.8900 
72.071	0.0151	0.0962	1.1357	0.8295	0.2637	5.7239	19.8900 
72.174	-0.0723	0.0044	1.0020	0.8459	0.3735	5.7788	19.8900 
72.188	-0.1172	-0.1211	0.9868	0.7361	0.4340	5.8173	19.8600 
72.188	-0.1909	-0.1831	1.1035	0.5383	0.3900	5.8942	19.9000 
72.188	-0.1245	-0.1011	1.1396	0.3351	0.2637	6.0919	19.8800 
72.188	-0.0068	-0.0249	1.1567	0.1099	0.1208	6.4655	19.8800 
72.194	0.0420	-0.0029	1.1348	-0.1099	-0.0165	6.8665	19.8800 
72.209	0.0898	-0.0020	1.0347	-0.3516	-0.1648	7.1906	19.8700 
72.231	0.0684	0.0083	0.9648	-0.6042	-0.2911	7.4048	19.8600 
72.254	0.0322	0.0044	0.8828	-0.8350	-0.3845	7.5201	19.8800 
72.276	0.0264	-0.0020	0.8574	-1.0327	-0.4724	7.5970	19.8600 
72.381	0.0273	-0.0132	0.8525	-1.2250	-0.5658	7.6520	19.8600 
72.393	0.0215	-0.0034	0.8755	-1.3953	-0.6482	7.6685	19.8700 
72.393	0.0200	-0.0107	0.8936	-1.5601	-0.6921	7.6575	19.8600 
72.393	0.0190	-0.0264	0.9258	-1.7249	-0.6921	7.6190	19.8600 
72.393	0.0259	-0.0117	0.9385	-1.8567	-0.6427	7.5476	19.8600 
72.393	0.0234	0.0073	0.9482	-1.9391	-0.5878	7.4597	19.8500 
72.416	0.0132	0.0034	0.9624	-1.9885	-0.5328	7.3883	19.8400 
72.426	0.0005	0.0278	0.9902	-2.0050	-0.4669	7.3114	19.8500 
72.445	0.0059	0.0483	1.0015	-1.9720	-0.3955	7.2400	19.8600 
72.468	0.0122	0.0723	1.0415	-1.8896	-0.3516	7.1576	19.8600 
72.485	0.0298	0.1182	1.0625	-1.7578	-0.3406	7.0697	19.8400 
72.597	0.0562	0.1855	1.0576	-1.5930	-0.3406	6.8939	19.8400 
72.613	0.0698	0.1929	1.0430	-1.4392	-0.3625	6.6302	19.8500 
72.613	0.0337	0.1328	1.0459	-1.2689	-0.4120	6.3281	19.8400 
72.613	-0.0049	0.0801	1.0552	-1.0876	-0.4669	6.0590	19.8500 
72.613	-0.0303	0.0757	1.0527	-0.8514	-0.5219	5.9052	19.8300 
72.620	0.0054	0.0957	1.0889	-0.5878	-0.5878	5.8118	19.8400 
72.630	0.1060	0.1084	1.1987	-0.3186	-0.7306	5.7294	19.8500 
72.654	0.1401	0.0908	1.1821	0.0055	-0.9503	5.6799	19.8100 
72.664	0.1572	-0.0254	1.1855	0.3351	-1.2085	5.6470	19.8200 
72.684	0.1831	-0.1060	1.2344	0.6097	-1.4886	5.7074	19.8100 
72.704	0.1997	-0.1899	1.1499	0.8569	-1.7908	5.9766	19.8100 
72.810	0.1870	-0.1553	1.1533	0.9998	-1.9226	6.1798	19.8000 
72.823	0.1709	-0.1768	1.2178	0.9943	-1.9556	6.2677	19.8100 
72.824	0.1255	-0.1328	1.2778	0.9943	-1.8951	6.2018	19.8100 
72.824	0.1074	0.0093	1.1592	1.0822	-1.7798	6.0425	19.8100 
72.824	0.1016	0.0508	0.9907	1.1755	-1.6260	5.8557	19.8300 
72.830	0.0835	-0.0107	0.8306	1.1810	-1.4557	5.6689	19.7900 
72.844	0.0752	-0.0361	0.8120	1.1096	-1.2854	5.4932	19.8100 
72.870	0.0659	-0.0620	0.8179	0.9998	-1.1755	5.3558	19.7900 
72.891	0.0630	-0.0435	0.8174	0.9009	-1.1096	5.2405	19.7900 
72.912	0.0879	-0.0220	0.8315	0.8240	-1.0876	5.1965	19.7900 
73.027	0.1133	-0.0254	0.8735	0.7086	-1.0822	5.2295	19.7700 
73.039	0.1445	0.0005	0.9546	0.5328	-1.0547	5.2844	19.7700 
73.040	0.1611	0.0166	0.9863	0.3625	-1.0107	5.3613	19.7800 
73.040	0.1655	0.0225	1.0225	0.2307	-0.9668	5.4382	19.7600 
73.040	0.1587	0.0244	1.0527	0.1263	-0.9064	5.4712	19.7600 
73.040	0.1411	0.0273	1.0469	0.0659	-0.8569	5.5042	19.7800 
73.046	0.1274	0.0435	1.0317	0.0604	-0.8130	5.6085	19.7800 
73.062	0.1313	0.0459	1.0459	0.0824	-0.7471	5.8008	19.7500 
73.183	0.1343	0.0488	1.0469	0.1154	-0.6592	6.0535	19.7600 
73.189	0.1362	0.0840	1.0186	0.1978	-0.5603	6.3281	19.7500 
73.189	0.1367	0.1108	1.0024	0.3516	-0.4724	6.5863	19.7500 
73.189	0.1396	0.1611	0.9932	0.5713	-0.4395	6.8390	19.7600 
73.189	0.1665	0.2007	0.9824	0.8075	-0.4340	7.0752	19.7500 
73.189	0.1919	0.2065	0.9546	0.9888	-0.4175	7.2345	19.7500 
73.201	0.1699	0.1558	0.9600	1.1151	-0.3680	7.3004	19.7500 
73.220	0.0972	0.0537	0.9961	1.2469	-0.3021	7.3279	19.7200 
73.242	0.0210	-0.0449	1.2988	1.4117	-0.2637	7.3608	19.7300 
73.264	0.0503	0.0532	1.2910	1.7194	-0.3735	7.4652	19.7500 
73.287	0.0552	0.1323	1.1772	2.0654	-0.4504	7.6520	19.7300 
73.393	0.0293	0.1133	1.1567	2.2632	-0.4449	7.8552	19.7500 
73.406	-0.0210	0.0142	1.1216	2.2357	-0.3571	8.0255	19.7400 
73.406	-0.0645	-0.0435	1.1240	2.0984	-0.2307	8.1628	19.7400 
73.406	-0.1245	-0.0747	1.1680	1.9446	-0.1428	8.3331	19.7300 
73.406	-0.0811	-0.0015	1.1768	1.7468	-0.0659	8.5474	19.7200 
73.412	-0.0044	0.0342	1.1738	1.4502	0.0220	8.8055	19.7300 
73.429	0.0381	0.0229	1.1260	1.0876	0.1099	9.0637	19.7400 
73.450	0.0596	0.0518	0.9849	0.7361	0.1593	9.2889	19.7300 
73.473	0.0454	0.0513	0.8813	0.3955	0.1703	9.4427	19.7300 
73.480	0.0225	0.0244	0.8042	0.0549	0.1648	9.5746	19.7100 
73.499	0.0093	-0.0044	0.8003	-0.2692	0.1428	9.6844	19.7300 
73.606	0.0000	0.0000	0.8345	-0.5548	0.1044	9.7559	19.7100 
73.619	0.0005	0.0103	0.8647	-0.7855	0.0659	9.7943	19.7100 
73.620	0.0098	0.0254	0.9170	-0.9943	0.0494	9.7778	19.7200 
73.620	0.0200	0.0410	0.9443	-1.1865	0.0494	9.7174	19.7200 
73.620	0.0161	0.0396	0.9644	-1.3458	0.0769	9.6075	19.6900 
73.626	0.0151	0.0332	0.9688	-1.4667	0.0824	9.4812	19.6900 
73.640	0.0190	0.0332	0.9878	-1.5601	0.0769	9.3219	19.7100 
73.664	0.0112	0.0474	0.9971	-1.5985	0.0549	9.1296	19.6800 
73.687	0.0010	0.0698	0.9648	-1.5546	0.0110	8.9429	19.7000 
73.707	0.0122	0.0815	0.9609	-1.4667	-0.0439	8.7671	19.7000 
73.818	0.0161	0.1021	1.0361	-1.3733	-0.1318	8.5693	19.6700 
73.832	0.0283	0.1196	1.0977	-1.2799	-0.2472	8.3496	19.6800 
73.832	0.0254	0.1084	1.1196	-1.1591	-0.3790	8.1409	19.6900 
73.832	0.0039	0.0967	1.1343	-1.0052	-0.4724	7.9651	19.6700 
73.832	0.0176	0.0664	1.1919	-0.8624	-0.5219	7.8278	19.6900 
73.833	0.0664	0.0464	1.3052	-0.7965	-0.5548	7.6849	19.6900 
73.839	0.1714	0.0352	1.3291	-0.7635	-0.6482	7.5421	19.6900 
73.859	0.1753	0.0112	1.2754	-0.6702	-0.7745	7.4432	19.6800 
73.877	0.1655	-0.0186	1.1685	-0.5164	-0.9064	7.4048	19.6700 
73.898	0.1689	-0.0278	1.0469	-0.3241	-1.0437	7.4652	19.6600 
73.920	0.1938	-0.0205	0.9546	-0.2472	-1.0986	7.4597	19.6700 
74.023	0.2231	-0.1025	0.9556	-0.3296	-1.1261	7.3169	19.6700 
74.036	0.1489	-0.1704	1.0859	-0.5164	-1.1261	6.9489	19.6700 
74.036	0.0874	-0.1924	1.1362	-0.6427	-1.1371	6.4270	19.6600 
74.036	0.0522	-0.1440	1.1226	-0.6702	-1.1755	5.9546	19.6400 
74.036	0.0737	-0.0986	1.0596	-0.6482	-1.2305	5.6525	19.6500 
74.044	0.1416	-0.0342	0.9248	-0.6042	-1.2579	5.5261	19.6300 
74.061	0.1851	-0.0098	0.8696	-0.5603	-1.2689	5.4987	19.6300 
74.079	0.1924	-0.0098	0.8311	-0.5383	-1.2689	5.4382	19.6400 
74.103	0.1563	-0.0093	0.8433	-0.5493	-1.2250	5.2350	19.6300 
74.125	0.1235	-0.0454	0.8818	-0.5988	-1.1371	4.9109	19.6300 
74.233	0.1201	-0.0601	0.9004	-0.7031	-1.0382	4.6143	19.6500 
74.246	0.1284	-0.0303	0.9263	-0.7965	-0.9119	4.3945	19.6500 
74.246	0.1558	-0.0073	0.9297	-0.8734	-0.8075	4.2847	19.6300 
74.246	0.1694	0.0244	0.9507	-0.9283	-0.7141	4.2133	19.6300 
74.246	0.1733	0.0527	0.9668	-0.9558	-0.6427	4.1803	19.6400 
74.246	0.1636	0.0474	0.9858	-0.9558	-0.5603	4.1473	19.6300 
74.255	0.1411	0.0225	1.0488	-0.9668	-0.4504	4.1199	19.6100 
74.275	0.1406	0.0195	1.0752	-0.9503	-0.3680	4.1638	19.6300 
74.294	0.1431	0.0547	1.0728	-0.8624	-0.2966	4.2957	19.6100 
74.315	0.1514	0.0728	1.0669	-0.6866	-0.2417	4.5374	19.6200 
74.336	0.1660	0.1445	1.0723	-0.4669	-0.1758	4.8175	19.6200 
74.450	0.1938	0.1992	1.0313	-0.2472	-0.1154	5.0922	19.6300 
74.463	0.2124	0.1602	0.9966	-0.1044	-0.0330	5.2954	19.6200 
74.463	0.1694	0.0918	1.0259	-0.0275	0.0659	5.4053	19.6000 
74.463	0.0405	-0.0503	1.1992	0.0275	0.1923	5.4602	19.6200 
74.463	0.0000	0.0151	1.3604	0.1648	0.3021	5.4712	19.6000 
74.463	0.0405	0.0962	1.2173	0.4395	0.3131	5.5920	19.6000 
74.488	-0.0029	0.1094	1.1035	0.6262	0.3845	5.6635	19.6000 
74.494	-0.0801	-0.0254	1.0000	0.5823	0.5328	5.6580	19.6100 
74.605	-0.1353	-0.1470	1.0415	0.3845	0.6537	5.6689	19.5900 
74.618	-0.1992	-0.2188	1.1924	0.1703	0.6812	5.8337	19.5900 
74.618	-0.1504	-0.1021	1.2134	0.0110	0.6647	6.1414	19.6000 
74.618	0.0137	-0.0107	1.1377	-0.1703	0.6372	6.6632	19.5800 
74.618	0.0591	0.0039	1.1060	-0.3680	0.5933	7.2125	19.5800 
74.624	0.1050	-0.0137	1.0313	-0.5933	0.4944	7.6794	19.6000 
74.639	0.1035	-0.0112	0.9561	-0.8185	0.3680	8.0475	19.5700 
74.662	0.0518	0.0117	0.8501	-0.9998	0.2472	8.2837	19.5900 
74.684	0.0166	0.0181	0.8057	-1.1096	0.1373	8.4155	19.5800 
74.691	-0.0005	0.0024	0.7998	-1.1920	0.0330	8.4979	19.5700 
74.711	-0.0176	0.0054	0.8315	-1.2689	-0.0220	8.4924	19.5600 
74.822	-0.0186	-0.0083	0.8804	-1.3513	-0.0439	8.4320	19.5600 
74.837	-0.0156	0.0039	0.9199	-1.4282	-0.0494	8.3441	19.5900 
74.837	0.0088	0.0542	0.9512	-1.4832	-0.0549	8.2397	19.5600 
74.837	0.0239	0.0864	0.9575	-1.4941	-0.0824	8.1409	19.5500 
74.837	0.0327	0.0864	0.9648	-1.4941	-0.1154	8.0475	19.5500 
74.844	0.0259	0.0801	0.9688	-1.5161	-0.1538	7.9102	19.5500 
74.855	0.0142	0.0762	0.9976	-1.5436	-0.2032	7.7783	19.5700 
74.878	-0.0005	0.0786	1.0317	-1.5710	-0.2692	7.6410	19.5700 
74.904	0.0117	0.0947	1.0776	-1.5601	-0.3571	7.4927	19.5700 
74.910	0.0298	0.1079	1.0942	-1.5326	-0.4999	7.3444	19.5700 
75.040	0.0361	0.1284	1.0796	-1.4447	-0.6976	7.2235	19.5500 
75.054	0.0410	0.1255	1.0796	-1.3293	-0.9119	7.1027	19.5600 
75.054	0.0405	0.1289	1.0615	-1.2030	-1.0931	6.9873	19.5700 
75.055	0.0542	0.1045	1.0825	-1.0767	-1.2689	6.8774	19.5500 
75.055	0.1309	0.0942	1.2261	-0.9778	-1.4941	6.7511	19.5400 
75.055	0.1914	0.0732	1.2461	-0.8295	-1.8127	6.6248	19.5500 
75.061	0.2446	-0.0293	1.3066	-0.7196	-2.1368	6.4600	19.5500 
75.075	0.2695	-0.1392	1.2163	-0.5988	-2.5159	6.3776	19.5500 
75.097	0.2427	-0.2202	1.1436	-0.4449	-2.8619	6.4709	19.5400 
75.120	0.1875	-0.2793	1.1489	-0.4559	-2.9333	6.4490	19.5300 
75.129	0.1597	-0.2759	1.1836	-0.5933	-2.8015	6.2457	19.5500 
75.255	0.0894	-0.2129	1.2700	-0.6207	-2.5378	5.9656	19.5500 
75.270	0.0850	-0.1240	1.1924	-0.4449	-2.3181	5.7733	19.5400 
75.271	0.0908	0.0107	1.0176	-0.1703	-2.0984	5.6470	19.5500 
75.271	0.1157	-0.0054	0.8882	0.0220	-1.8677	5.5920	19.5300 
75.271	0.1064	-0.0342	0.7900	0.1318	-1.5820	5.5151	19.5300 
75.271	0.0913	-0.0283	0.8052	0.2032	-1.2469	5.3723	19.5300 
75.277	0.0742	-0.0454	0.8164	0.2637	-0.9778	5.2679	19.5300 
75.290	0.0698	-0.0088	0.8066	0.3461	-0.7416	5.1471	19.5300 
75.417	0.0801	0.0054	0.8511	0.4065	-0.5109	5.0647	19.5200 
75.424	0.1045	0.0083	0.8696	0.4395	-0.3406	5.0482	19.5200 
75.424	0.1270	0.0342	0.9131	0.4285	-0.1978	5.1031	19.5100 
75.424	0.1362	0.0459	0.9468	0.3900	-0.0824	5.2185	19.5200 
75.424	0.1362	0.0566	1.0107	0.3186	0.0165	5.3229	19.5000 
75.424	0.1431	0.0645	1.0342	0.2307	0.1318	5.4108	19.5100 
75.430	0.1387	0.0825	1.0303	0.2087	0.2362	5.5151	19.5100 
75.451	0.1304	0.0913	1.0249	0.2417	0.3131	5.6580	19.5200 
75.473	0.1123	0.0972	1.0605	0.2856	0.3845	5.7953	19.5000 
75.495	0.1187	0.0981	1.0669	0.3461	0.4449	5.9491	19.5000 
75.520	0.1382	0.1226	1.0488	0.4614	0.4614	6.1578	19.5100 
75.623	0.1396	0.1567	1.0454	0.6317	0.4944	6.3940	19.4900 
75.636	0.1509	0.1904	1.0508	0.7855	0.5603	6.6138	19.4900 
75.636	0.1587	0.1836	1.0518	0.8679	0.6647	6.7621	19.4900 
75.636	0.1294	0.1191	1.0610	0.8899	0.7910	6.8060	19.4700 
75.636	0.0610	0.0381	1.1416	0.9393	0.9064	6.7841	19.4900 
75.636	0.0269	0.0503	1.2690	1.0876	0.9558	6.7676	19.4800 
75.656	0.0264	0.0596	1.2466	1.3623	0.9503	6.8335	19.4900 
75.667	-0.0225	0.0903	1.1509	1.6260	0.9448	6.9159	19.4600 
75.686	-0.0654	0.0552	1.0513	1.7963	0.9888	6.9543	19.4700 
75.716	-0.1201	-0.0610	1.0132	1.7743	1.0931	6.9159	19.4800 
75.737	-0.1572	-0.1396	1.0317	1.6479	1.1481	6.8939	19.4700 
75.833	-0.1797	-0.1602	1.1563	1.4612	1.1865	6.9214	19.4600 
75.846	-0.1079	-0.0913	1.1582	1.2415	1.2140	7.0752	19.4700 
75.846	-0.0112	-0.0288	1.1094	1.0162	1.1865	7.3773	19.4500 
75.846	0.0410	-0.0049	1.0640	0.8185	1.0822	7.7289	19.4500 
75.846	0.0859	0.0273	0.9917	0.6152	0.8954	8.0475	19.4800 
75.852	0.0752	0.0371	0.9194	0.3845	0.6921	8.2837	19.4700 
75.868	0.0205	0.0444	0.8398	0.1593	0.5109	8.3826	19.4500 
75.890	-0.0098	0.0332	0.8228	0.0000	0.3186	8.4375	19.4400 
75.913	-0.0288	0.0078	0.8457	-0.1154	0.1099	8.4924	19.4500 
75.934	-0.0103	0.0015	0.8838	-0.2527	-0.0824	8.5474	19.4800 
76.041	0.0347	0.0142	0.9233	-0.4175	-0.2692	8.6078	19.4600 
76.057	0.0518	0.0449	0.9243	-0.5383	-0.4559	8.6737	19.4500 
76.057	0.0537	0.0684	0.9512	-0.5988	-0.6152	8.7286	19.4500 
76.058	0.0508	0.0776	0.9746	-0.6702	-0.7251	8.7396	19.4500 
76.058	0.0283	0.0864	0.9873	-0.7635	-0.7581	8.6572	19.4500 
76.058	0.0249	0.0864	0.9844	-0.8295	-0.7855	8.5638	19.4400 
76.076	0.0117	0.0825	1.0151	-0.8624	-0.8240	8.5034	19.4400 
76.084	0.0161	0.1172	1.0703	-0.8459	-0.8954	8.4595	19.4600 
76.103	0.0493	0.1372	1.0742	-0.8295	-0.9888	8.4100	19.4500 
76.124	0.0815	0.1445	1.0693	-0.8514	-1.0822	8.3331	19.4300 
76.147	0.0771	0.1587	1.0474	-0.8514	-1.1700	8.2123	19.4300 
76.256	0.0703	0.1431	1.0229	-0.8459	-1.2744	8.0475	19.4500 
76.271	0.0605	0.1226	1.0190	-0.8295	-1.3788	7.8387	19.4500 
76.271	0.0273	0.0620	1.0591	-0.7965	-1.4557	7.5641	19.4300 
76.271	0.0513	0.0254	1.1758	-0.7800	-1.5326	7.2290	19.4300 
76.271	0.1396	-0.0068	1.1816	-0.6372	-1.7084	6.9543	19.4300 
76.277	0.1548	-0.0229	1.1792	-0.4340	-1.8787	6.6962	19.4300 
76.289	0.2607	-0.1587	1.1909	-0.2856	-2.1423	6.6357	19.4300 
76.311	0.3198	-0.2305	1.2153	-0.2032	-2.4884	6.8445	19.4300 
76.322	0.2607	-0.2725	1.2100	-0.2307	-2.7081	7.0862	19.4300 
76.342	0.1914	-0.2632	1.2534	-0.3571	-2.6367	7.0203	19.4100 
76.464	0.0801	-0.1572	1.3306	-0.4614	-2.3511	6.7621	19.4200 
76.470	0.0698	-0.0400	1.1899	-0.3955	-2.0874	6.5424	19.4100 
76.470	0.1060	0.0181	0.9414	-0.2472	-1.9171	6.4545	19.4300 
76.470	0.1133	-0.0239	0.8442	-0.1758	-1.7963	6.4270	19.4100 
76.470	0.0923	-0.0664	0.8174	-0.1648	-1.6589	6.3556	19.4100 
76.470	0.0825	-0.0483	0.8193	-0.1318	-1.5161	6.2787	19.4000 
76.481	0.1104	-0.0015	0.8022	-0.0494	-1.4063	6.2897	19.3900 
76.501	0.1357	-0.0171	0.8062	0.0000	-1.3348	6.3611	19.3900 
76.523	0.1479	-0.0347	0.8877	-0.0330	-1.2250	6.3940	19.3800 
76.543	0.1353	-0.0220	0.9419	-0.1099	-1.0657	6.3501	19.3700 
76.562	0.1445	-0.0024	0.9707	-0.1813	-0.9338	6.3336	19.3700 
76.689	0.1592	0.0000	0.9956	-0.2637	-0.8240	6.3776	19.3800 
76.696	0.1592	0.0132	1.0195	-0.3351	-0.7141	6.4325	19.3700 
76.696	0.1582	0.0303	1.0146	-0.3625	-0.6207	6.5094	19.3600 
76.696	0.1533	0.0283	1.0205	-0.3516	-0.5493	6.6248	19.3800 
76.696	0.1436	0.0337	1.0381	-0.3296	-0.4340	6.7621	19.3600 
76.696	0.1431	0.0576	1.0576	-0.2856	-0.2911	6.9214	19.3600 
76.702	0.1567	0.0732	1.0630	-0.2087	-0.1648	7.1411	19.3500 
76.723	0.1523	0.1118	1.0698	-0.0659	-0.0659	7.3828	19.3300 
76.745	0.1709	0.1587	1.0430	0.1208	-0.0220	7.6245	19.3400 
76.845	0.1880	0.1787	1.0171	0.2966	0.0275	7.8168	19.3600 
76.858	0.1768	0.1650	0.9980	0.3955	0.1373	7.8882	19.3400 
76.859	0.1138	0.0708	0.9961	0.4724	0.2692	7.8937	19.3300 
76.859	0.0449	-0.0200	1.0820	0.5658	0.3790	7.9486	19.3400 
76.859	-0.0068	0.0254	1.2598	0.7635	0.4065	8.0914	19.3100 
76.865	0.0322	0.0898	1.1641	1.1151	0.3186	8.3936	19.3100 
76.883	-0.0054	0.0181	1.0928	1.4337	0.2307	8.7781	19.3100 
76.903	-0.0444	-0.0117	1.0605	1.5930	0.2197	9.0637	19.3100 
76.924	-0.1260	-0.0205	1.1543	1.5765	0.3516	9.1626	19.3100 
76.948	-0.1147	-0.1006	1.1753	1.4667	0.4395	9.3549	19.3100 
77.058	-0.1030	-0.0425	1.2778	1.3074	0.4834	9.6625	19.3100 
77.071	-0.0176	-0.0029	1.2412	1.1096	0.5054	10.0195	19.3100 
77.071	0.0586	0.0327	1.1807	0.9119	0.4559	10.3656	19.2900 
77.072	0.0986	0.0522	1.0313	0.7581	0.3461	10.6403	19.3100 
77.072	0.0874	0.0649	0.9219	0.6537	0.1703	10.8490	19.3000 
77.072	0.0503	0.0498	0.7827	0.5713	-0.0165	11.0083	19.2800 
77.078	0.0273	0.0352	0.7456	0.4834	-0.1978	11.1127	19.2700 
77.100	-0.0020	0.0205	0.8052	0.3516	-0.3131	11.0852	19.2800 
77.118	-0.0073	0.0176	0.8643	0.1978	-0.3735	10.9753	19.2700 
77.138	0.0117	0.0264	0.9141	0.0659	-0.3955	10.8160	19.2600 
77.160	0.0342	0.0449	0.9541	-0.0659	-0.3900	10.5963	19.2400 
77.271	0.0483	0.0552	0.9961	-0.1868	-0.3790	10.3491	19.2400 
77.284	0.0361	0.0923	0.9907	-0.2197	-0.3571	10.0690	19.2400 
77.284	0.0259	0.1147	0.9590	-0.1978	-0.3571	9.7943	19.2300 
77.284	0.0156	0.1104	0.9722	-0.2032	-0.3680	9.5087	19.2400 
77.284	0.0034	0.1074	0.9927	-0.2692	-0.3735	9.1846	19.2200 
77.284	0.0156	0.1108	0.9824	-0.3516	-0.3845	8.8330	19.2400 
77.306	0.0288	0.1069	0.9814	-0.4395	-0.4449	8.4869	19.2300 
77.316	0.0303	0.0952	1.0376	-0.5273	-0.5438	8.1519	19.2200 
77.336	0.0059	0.0981	1.1040	-0.5548	-0.6647	7.8333	19.2300 
77.355	-0.0029	0.1182	1.0859	-0.5109	-0.7855	7.5586	19.2300 
77.376	0.0137	0.1353	1.0620	-0.4504	-0.8954	7.3444	19.2200 
77.490	0.0283	0.1206	1.0898	-0.4340	-0.9833	7.1576	19.2200 
77.496	0.0757	0.0659	1.1797	-0.4889	-1.0822	6.9598	19.2100 
77.496	0.1304	0.0415	1.2324	-0.5603	-1.2305	6.7456	19.2200 
77.496	0.1519	-0.0293	1.2725	-0.5823	-1.4063	6.5094	19.2100 
77.496	0.1841	-0.0396	1.2266	-0.5438	-1.5875	6.2457	19.2300 
77.496	0.2271	-0.0674	1.1211	-0.4230	-1.8018	6.1304	19.2100 
77.524	0.2280	-0.1919	1.0234	-0.3461	-2.0544	6.2732	19.2200 
77.546	0.1821	-0.2388	1.1118	-0.4669	-2.1313	6.3062	19.2000 
77.651	0.1406	-0.2275	1.1787	-0.6207	-2.0929	6.1523	19.2100 
77.662	0.0771	-0.1343	1.2188	-0.6976	-1.9940	5.8612	19.2100 
77.662	0.0737	-0.0459	1.1357	-0.6812	-1.8677	5.5316	19.2100 
77.662	0.1025	0.0181	0.9395	-0.6097	-1.7523	5.3009	19.1900 
77.662	0.1260	-0.0137	0.8516	-0.5933	-1.6589	5.1965	19.2000 
77.662	0.1094	-0.0527	0.8296	-0.6427	-1.5710	5.1306	19.1900 
77.688	0.1035	-0.0571	0.8516	-0.6976	-1.4777	5.0098	19.1900 
77.696	0.1084	-0.0107	0.8491	-0.6976	-1.4117	4.8615	19.1900 
77.714	0.1221	-0.0054	0.8384	-0.6537	-1.3788	4.7626	19.1800 
77.734	0.1274	-0.0298	0.8975	-0.6427	-1.3513	4.7021	19.1800 
77.756	0.1333	-0.0283	0.9395	-0.6702	-1.2964	4.6472	19.2000 
77.869	0.1587	0.0107	0.9673	-0.6812	-1.2360	4.6582	19.1800 
77.881	0.1836	0.0234	0.9922	-0.6921	-1.1975	4.7681	19.1700 
77.882	0.1943	0.0493	1.0200	-0.6976	-1.1481	4.9054	19.1900 
77.882	0.1914	0.0542	1.0396	-0.6866	-1.0876	5.0537	19.1900 
77.882	0.1772	0.0420	1.0562	-0.6647	-0.9998	5.2130	19.1700 
77.882	0.1592	0.0376	1.0527	-0.6152	-0.8734	5.3778	19.1800 
77.902	0.1479	0.0522	1.0493	-0.5219	-0.7251	5.5591	19.1900 
77.913	0.1504	0.0879	1.0522	-0.3735	-0.5933	5.7843	19.1700 
77.933	0.1724	0.1201	1.0415	-0.2197	-0.4889	6.0370	19.1600 
77.954	0.2056	0.1323	1.0264	-0.0659	-0.4065	6.2952	19.1600 
77.972	0.2119	0.1196	1.0361	0.0385	-0.3076	6.5259	19.1700 
78.095	0.1626	0.0459	1.0601	0.1373	-0.1923	6.7291	19.1700 
78.101	0.0986	-0.0547	1.1157	0.2802	-0.0824	6.9928	19.1800 
78.101	0.0269	-0.0327	1.3184	0.5383	-0.0055	7.2894	19.1700 
78.101	0.0298	0.0293	1.3481	0.8899	0.0385	7.6575	19.1600 
78.101	-0.0059	0.1177	1.1875	1.1700	0.1428	7.9706	19.1400 
78.101	-0.0459	0.1328	1.0161	1.3348	0.3680	8.1848	19.1300 
78.111	-0.1099	-0.0454	0.9482	1.2579	0.6592	8.2727	19.1500 
78.132	-0.1650	-0.1792	1.0439	1.0437	0.9064	8.3002	19.1600 
78.158	-0.1323	-0.0962	1.1797	0.8459	0.9833	8.4320	19.1600 
78.180	-0.0547	-0.0283	1.1353	0.6921	0.9888	8.7506	19.1500 
78.199	-0.0020	0.0181	1.0713	0.5933	0.9723	9.1132	19.1400 
78.320	0.0254	0.0186	1.0259	0.4724	0.9119	9.4153	19.1300 
78.326	0.0513	0.0229	0.9165	0.2802	0.8020	9.6460	19.1500 
78.326	0.0435	0.0332	0.8599	0.0769	0.6757	9.8053	19.1400 
78.326	0.0146	0.0034	0.8184	-0.1099	0.5109	9.8987	19.1500 
78.326	-0.0161	0.0039	0.8281	-0.2472	0.3351	9.9316	19.1400 
78.326	-0.0259	0.0181	0.8867	-0.3296	0.1868	9.9152	19.1300 
78.332	-0.0073	0.0234	0.9194	-0.4120	0.0604	9.8822	19.1300 
78.354	0.0317	0.0439	0.9521	-0.5054	-0.0330	9.8218	19.1300 
78.378	0.0508	0.0557	0.9492	-0.5878	-0.1428	9.7449	19.1400 
78.484	0.0405	0.0640	0.9824	-0.6647	-0.2087	9.6185	19.1200 
78.500	0.0264	0.0903	0.9844	-0.7196	-0.2417	9.4153	19.1300 
78.500	0.0288	0.1104	0.9692	-0.7361	-0.2911	9.2120	19.1300 
78.501	0.0303	0.1025	0.9873	-0.7416	-0.3625	9.0088	19.1200 
78.501	0.0405	0.1094	1.0332	-0.7635	-0.4395	8.7836	19.1300 
78.501	0.0493	0.1147	1.0654	-0.8075	-0.5109	8.5144	19.1300 
78.519	0.0625	0.1523	1.0688	-0.8459	-0.5823	8.2013	19.1200 
78.540	0.0620	0.1538	1.0459	-0.8185	-0.6812	7.8937	19.1200 
78.548	0.0303	0.1289	1.0342	-0.7635	-0.7635	7.5696	19.1400 
78.568	0.0151	0.1226	1.0386	-0.7031	-0.8459	7.2180	19.1200 
78.588	0.0225	0.1309	1.0381	-0.6317	-0.9229	6.8390	19.1300 
78.699	0.0688	0.0806	1.1021	-0.6152	-1.0107	6.4215	19.1100 
78.714	0.1543	0.0093	1.2124	-0.6097	-1.1755	5.9821	19.1200 
78.714	0.1543	-0.0376	1.2720	-0.5054	-1.3733	5.5096	19.1100 
78.714	0.2363	-0.0723	1.2617	-0.3516	-1.5930	5.0262	19.1200 
78.715	0.2900	-0.0957	1.2134	-0.1813	-1.9116	4.7955	19.1300 
78.722	0.2773	-0.2109	1.1328	-0.0824	-2.1863	4.8065	19.1400 
78.735	0.2188	-0.2749	1.1729	-0.1593	-2.2742	4.7900	19.1300 
78.758	0.0864	-0.2480	1.2700	-0.3021	-2.0819	4.4989	19.1300 
78.778	0.0273	-0.1460	1.2607	-0.3406	-1.7743	4.1473	19.1200 
78.788	0.0215	-0.0400	1.0864	-0.1923	-1.4832	3.9276	19.1100 
78.807	0.0566	0.0347	0.8364	-0.0165	-1.1975	3.8068	19.1300 
78.907	0.0859	-0.0239	0.7607	0.0330	-0.9558	3.7573	19.1300 
78.922	0.0811	-0.0884	0.7817	0.0000	-0.7306	3.6749	19.0900 
78.922	0.0659	-0.0830	0.8276	0.0275	-0.5603	3.5596	19.1100 
78.922	0.0825	-0.0474	0.8535	0.1318	-0.4395	3.5211	19.1100 
78.922	0.1035	-0.0181	0.8730	0.2362	-0.3186	3.5651	19.1000 
78.929	0.1504	0.0264	0.9199	0.3131	-0.2032	3.6639	19.1000 
78.946	0.1689	0.0469	0.9497	0.3351	-0.1099	3.7793	19.0900 
78.966	0.1714	0.0562	1.0049	0.2747	-0.0110	3.8782	19.0900 
78.985	0.1592	0.0532	1.0259	0.1593	0.1263	3.9331	19.1000 
79.010	0.1411	0.0664	1.0176	0.0714	0.2747	3.9716	19.0900 
79.122	0.1240	0.0757	0.9976	0.0385	0.4230	4.0100	19.1100 
79.135	0.0981	0.0776	1.0024	0.0604	0.5823	4.0540	19.0900 
79.135	0.0942	0.0830	1.0137	0.0934	0.7581	4.1199	19.1100 
79.135	0.1045	0.0977	1.0186	0.1318	0.9338	4.2242	19.1100 
79.135	0.1143	0.1099	1.0386	0.1703	1.0876	4.3616	19.1100 
79.136	0.1382	0.1343	1.0728	0.2142	1.1865	4.5319	19.1100 
79.156	0.1567	0.1362	1.0923	0.2527	1.2634	4.6912	19.0900 
79.166	0.1631	0.1343	1.0840	0.2692	1.3348	4.8230	19.0900 
79.286	0.1465	0.1230	1.0586	0.2911	1.4227	4.9384	19.0900 
79.300	0.1001	0.0405	1.0635	0.3186	1.5216	5.0812	19.0800 
79.300	0.0347	-0.0342	1.1641	0.3790	1.6040	5.2515	19.0900 
79.300	0.0015	0.0444	1.3301	0.5328	1.6589	5.4712	19.0800 
79.300	0.0449	0.0942	1.2612	0.7690	1.6589	5.7513	19.0900 
79.300	0.0376	0.1113	1.2036	0.8844	1.6534	5.9546	19.0700 
79.306	-0.0020	0.0703	1.0508	0.8569	1.7194	5.9491	19.0800 
79.324	-0.0913	-0.1162	0.9219	0.6866	1.8677	5.7513	19.0800 
79.347	-0.1870	-0.2285	0.9985	0.4669	1.9885	5.5316	19.0800 
79.366	-0.1895	-0.1475	1.1128	0.2747	2.0270	5.4272	19.0900 
79.386	-0.0874	-0.0732	1.1187	0.0769	2.0270	5.5756	19.0800 
79.503	-0.0093	-0.0547	1.1514	-0.1154	2.0325	5.8337	19.0800 
79.509	0.0068	-0.0342	1.1216	-0.2802	2.0325	6.0535	19.0800 
79.509	0.0161	0.0034	1.0059	-0.4120	2.0270	6.1798	19.0700 
79.509	0.0063	0.0190	0.9395	-0.5438	2.0105	6.2292	19.0700 
79.509	-0.0288	0.0122	0.8774	-0.6537	1.9556	6.2512	19.0700 
79.509	-0.0386	-0.0054	0.8813	-0.7581	1.8842	6.2622	19.0700 
79.523	-0.0396	0.0078	0.8911	-0.8624	1.8292	6.2622	19.0600 
79.543	-0.0352	0.0098	0.8784	-0.9338	1.8182	6.2677	19.0600 
79.563	-0.0122	0.0137	0.8682	-0.9888	1.8127	6.2677	19.0600 
79.585	0.0000	0.0176	0.8965	-1.0657	1.7963	6.2402	19.0500 
79.602	0.0195	0.0454	0.9229	-1.1426	1.7688	6.1469	19.0800 
79.711	0.0112	0.0605	0.9253	-1.1810	1.7413	5.9985	19.0600 
79.725	-0.0039	0.0557	0.9502	-1.1755	1.7139	5.7568	19.0600 
79.726	-0.0146	0.0303	0.9878	-1.1810	1.6974	5.4437	19.0600 
79.726	-0.0332	0.0356	1.0254	-1.1920	1.7194	5.0592	19.0500 
79.726	-0.0415	0.0874	1.0352	-1.1426	1.7413	4.7076	19.0500 
79.732	-0.0181	0.1299	1.0337	-1.0492	1.7249	4.4385	19.0600 
79.747	0.0181	0.1772	1.0527	-0.9393	1.6479	4.1968	19.0600 
79.769	0.0112	0.1641	1.0903	-0.8240	1.5710	3.9331	19.0600 
79.788	-0.0195	0.1387	1.1206	-0.7086	1.4996	3.6530	19.0500 
79.811	-0.0405	0.1353	1.1104	-0.5768	1.4557	3.3838	19.0600 
79.918	-0.0356	0.1602	1.0679	-0.4559	1.4172	3.1366	19.0700 
79.935	-0.0195	0.1606	1.0586	-0.3516	1.3678	2.9114	19.0700 
79.935	0.0400	0.1006	1.1636	-0.3076	1.2744	2.6862	19.0600 
79.935	0.0776	0.0635	1.2090	-0.2252	1.0712	2.4829	19.0600 
79.935	0.0796	0.0098	1.2646	-0.0549	0.8405	2.2906	19.0600 
79.935	0.1226	-0.0347	1.2578	0.1044	0.6152	2.1533	19.0600 
79.954	0.1689	-0.0552	1.1509	0.2582	0.3735	2.1698	19.0700 
79.961	0.1763	-0.0850	1.0024	0.4230	0.1099	2.3950	19.0600 
79.982	0.1543	-0.1216	0.9746	0.4285	0.0000	2.5433	19.0600 
80.000	0.1333	-0.1982	1.0381	0.2692	-0.0385	2.5818	19.0600 
80.019	0.0581	-0.1416	1.1270	0.1593	0.0000	2.4115	19.0500 
80.127	0.0522	-0.1074	1.1064	0.1428	0.0110	2.2577	19.0500 
80.141	0.0483	-0.0664	1.0327	0.1648	0.0439	2.1698	19.0500 
80.141	0.0591	-0.0513	0.9819	0.1978	0.1099	2.1423	19.0500 
80.141	0.0771	-0.0151	0.9189	0.2417	0.1978	2.1808	19.0300 
80.141	0.0977	-0.0054	0.8975	0.2911	0.2966	2.2467	19.0500 
80.147	0.1089	0.0444	0.8604	0.3845	0.3461	2.3181	19.0400 
80.160	0.1099	0.0435	0.8560	0.4779	0.3516	2.3840	19.0400 
80.184	0.0996	-0.0073	0.9292	0.4889	0.3516	2.4060	19.0600 
80.207	0.0889	-0.0234	0.9507	0.4340	0.3790	2.3895	19.0500 
80.227	0.0796	0.0181	0.9561	0.3955	0.4230	2.3895	19.0600 
80.335	0.1011	0.0449	0.9673	0.3680	0.4669	2.4445	19.0500 
80.348	0.1289	0.0737	0.9849	0.3241	0.4944	2.5269	19.0400 
80.348	0.1353	0.0859	1.0024	0.2966	0.5273	2.5928	19.0400 
80.348	0.1357	0.0825	1.0225	0.2856	0.5603	2.6422	19.0500 
80.348	0.1377	0.0728	1.0576	0.2802	0.5713	2.7301	19.0400 
80.348	0.1226	0.0732	1.0698	0.3076	0.5658	2.8619	19.0500 
80.358	0.1177	0.0986	1.0674	0.4065	0.5438	3.0267	19.0500 
80.378	0.1377	0.1323	1.0552	0.5493	0.4999	3.2300	19.0500 
80.491	0.1421	0.1465	1.0688	0.6866	0.4779	3.4552	19.0600 
80.497	0.1787	0.1655	1.0439	0.7855	0.4944	3.6475	19.0400 
80.498	0.1855	0.1294	1.0381	0.8569	0.5273	3.7958	19.0500 
80.498	0.1206	0.0352	1.1118	0.9338	0.5603	3.8892	19.0500 
80.498	0.0688	0.0229	1.2778	1.0657	0.5878	3.9276	19.0500 
80.498	0.0928	0.0718	1.2808	1.2469	0.6262	3.9771	19.0500 
80.526	0.0244	0.0703	1.1470	1.3898	0.7251	4.0045	19.0600 
80.549	-0.0981	0.0015	1.0142	1.4502	0.9119	3.9441	19.0600 
80.557	-0.1523	-0.0898	1.0068	1.4063	1.0986	3.8782	19.0500 
80.579	-0.1626	-0.1616	1.1226	1.2360	1.1975	3.8727	19.0400 
80.599	-0.1582	-0.1289	1.1431	1.1151	1.1755	3.9990	19.0400 
80.699	-0.0923	-0.0664	1.1216	1.0327	1.0986	4.2847	19.0500 
80.711	0.0063	-0.0273	1.1050	0.9338	0.9833	4.6692	19.0500 
80.711	0.0400	-0.0205	1.0864	0.8075	0.8240	5.0812	19.0500 
80.711	0.0635	0.0034	0.9980	0.7086	0.6207	5.4767	19.0600 
80.711	0.0488	0.0210	0.9170	0.6647	0.4230	5.8173	19.0600 
80.718	0.0146	0.0522	0.8467	0.6482	0.2637	6.0645	19.0500 
80.737	-0.0024	0.0649	0.8291	0.6702	0.1263	6.2512	19.0400 
80.755	-0.0015	0.0586	0.8550	0.6866	0.0055	6.4105	19.0500 
80.778	0.0059	0.0474	0.8779	0.6647	-0.0659	6.5479	19.0500 
80.800	0.0205	0.0459	0.9297	0.6042	-0.0989	6.6687	19.0500 
80.901	0.0381	0.0684	0.9375	0.5548	-0.1373	6.7896	19.0500 
80.912	0.0552	0.1030	0.9370	0.5164	-0.2032	6.8829	19.0500 
80.913	0.0430	0.1128	0.9326	0.4779	-0.2802	6.9104	19.0600 
80.913	0.0054	0.0669	0.9517	0.4340	-0.3296	6.9214	19.0600 
80.913	-0.0107	0.0654	0.9873	0.3900	-0.3296	6.9379	19.0400 
80.919	0.0210	0.1074	0.9961	0.3296	-0.3241	7.0038	19.0400 
80.940	0.0513	0.1387	1.0093	0.2362	-0.3186	7.0532	19.0400 
80.960	0.0723	0.1655	1.0513	0.1044	-0.3516	7.0313	19.0400 
80.979	0.0713	0.1870	1.0522	0.0055	-0.4449	6.9434	19.0500 
81.003	0.0298	0.1499	1.0537	-0.0494	-0.5548	6.8005	19.0400 
81.120	-0.0093	0.0903	1.0957	-0.1373	-0.6482	6.6248	19.0400 
81.136	-0.0234	0.0439	1.1714	-0.2252	-0.7086	6.4490	19.0400 
81.136	0.0342	0.0503	1.2866	-0.3021	-0.7745	6.2787	19.0400 
81.136	0.2012	0.0400	1.3398	-0.3571	-0.9998	6.1523	19.0400 
81.136	0.2227	0.0112	1.3374	-0.3406	-1.3019	6.0150	19.0300 
81.136	0.2183	0.0000	1.2056	-0.2197	-1.6260	5.8887	19.0300 
81.143	0.2100	-0.0298	1.0269	-0.0275	-1.9501	5.9711	19.0400 
81.157	0.1904	-0.1157	0.8975	0.0000	-2.1094	6.1194	19.0300 
81.177	0.2007	-0.1997	0.9429	-0.2747	-2.0929	6.0754	19.0300 
81.211	0.1172	-0.2329	1.0889	-0.6042	-1.9830	5.7788	19.0400 
81.230	0.0645	-0.1841	1.1455	-0.7251	-1.8677	5.3119	19.0500 
81.344	0.0674	-0.1152	1.1040	-0.6702	-1.8292	4.9384	19.0400 
81.359	0.0894	-0.0654	1.0781	-0.5988	-1.8018	4.6747	19.0400 
81.359	0.1514	-0.0620	0.9448	-0.5823	-1.7798	4.5319	19.0200 
81.359	0.1685	-0.0410	0.9097	-0.6207	-1.7139	4.4275	19.0200 
81.359	0.1636	-0.0576	0.8662	-0.6262	-1.6260	4.3176	19.0400 
81.359	0.1304	-0.0396	0.8794	-0.6042	-1.4832	4.1364	19.0300 
81.365	0.1138	-0.0293	0.9102	-0.5548	-1.3348	3.9111	19.0200 
81.378	0.1187	-0.0366	0.9307	-0.5164	-1.1975	3.7189	19.0100 
81.403	0.1353	-0.0273	0.9414	-0.4999	-1.0712	3.5870	19.0200 
81.425	0.1475	-0.0044	0.9331	-0.4834	-0.9613	3.5046	19.0100 
81.433	0.1626	0.0171	0.9414	-0.4504	-0.8789	3.4497	19.0000 
81.451	0.1572	0.0420	0.9487	-0.4065	-0.7855	3.4167	19.0100 
81.567	0.1396	0.0532	0.9517	-0.3406	-0.6812	3.3893	19.0000 
81.581	0.1128	0.0532	0.9624	-0.2966	-0.5548	3.3893	19.0200 
81.582	0.1030	0.0610	0.9922	-0.2802	-0.3625	3.4167	19.0000 
81.582	0.1201	0.0596	1.0171	-0.3186	-0.1373	3.4991	19.0000 
81.582	0.1367	0.0615	1.0210	-0.3571	0.0604	3.6530	19.0000 
81.582	0.1563	0.0986	1.0713	-0.3241	0.1923	3.8727	18.9900 
81.601	0.1616	0.1108	1.0830	-0.2252	0.2252	4.1473	19.0000 
81.611	0.1919	0.1709	1.0996	-0.0934	0.2362	4.4165	19.0000 
81.724	0.2065	0.1733	1.1074	0.0275	0.2582	4.6527	18.9900 
81.737	0.1660	0.1182	1.1235	0.1483	0.3406	4.8065	18.9700 
81.737	0.0947	0.0249	1.2114	0.2911	0.4614	4.9493	18.9800 
81.737	0.0288	0.0361	1.3892	0.4944	0.5713	5.1526	18.9900 
81.737	0.0337	0.0859	1.3379	0.8405	0.6702	5.4382	18.9700 
81.738	0.0181	0.1323	1.1211	1.1316	0.8020	5.6470	18.9800 
81.758	-0.0127	0.0854	0.9624	1.2469	0.9613	5.7623	18.9800 
81.778	-0.0684	-0.0981	0.8965	1.1481	1.0602	5.8557	18.9700 
81.790	-0.1416	-0.1860	1.0044	0.9833	1.1041	5.9656	18.9600 
81.809	-0.1514	-0.1289	1.0962	0.8350	1.0767	6.1029	18.9700 
81.829	-0.0913	-0.0571	1.0786	0.7031	1.0822	6.3501	18.9700 
81.927	-0.0171	0.0015	1.0522	0.6097	1.0931	6.6852	18.9500 
81.939	0.0342	0.0054	1.0459	0.4944	1.0437	6.9708	18.9700 
81.939	0.0493	0.0107	1.0107	0.3296	0.9064	7.1246	18.9600 
81.939	0.0308	0.0396	0.9561	0.1758	0.7416	7.1356	18.9600 
81.939	0.0117	0.0229	0.8984	0.0220	0.5658	7.0752	18.9700 
81.950	-0.0127	0.0103	0.8936	-0.1263	0.4285	6.9873	18.9500 
81.968	-0.0210	0.0098	0.9150	-0.2527	0.3131	6.9159	18.9500 
81.988	-0.0083	0.0146	0.9272	-0.3571	0.2087	6.8884	18.9500 
82.009	0.0181	0.0254	0.9336	-0.4559	0.1208	6.8665	18.9500 
82.033	0.0317	0.0322	0.9360	-0.5383	0.0439	6.8335	18.9600 
82.149	0.0439	0.0376	0.9380	-0.6097	-0.0220	6.7841	18.9500 
82.156	0.0352	0.0322	0.9336	-0.6702	-0.0824	6.7017	18.9500 
82.156	0.0068	0.0420	0.9365	-0.7196	-0.1099	6.5753	18.9400 
82.156	-0.0010	0.0493	0.9458	-0.7416	-0.1263	6.4270	18.9500 
82.156	0.0103	0.0664	0.9878	-0.7526	-0.1483	6.2787	18.9400 
82.156	0.0166	0.1050	1.0225	-0.7635	-0.1923	6.1194	18.9300 
82.166	0.0532	0.1362	1.0566	-0.7855	-0.2637	5.9436	18.9300 
82.186	0.0532	0.1431	1.0562	-0.7855	-0.3680	5.7623	18.9400 
82.208	0.0400	0.1401	1.0454	-0.7306	-0.5054	5.6085	18.9600 
82.227	0.0366	0.1372	1.0493	-0.6702	-0.6317	5.4712	18.9400 
82.252	0.0293	0.1523	1.0356	-0.6097	-0.7361	5.3339	18.9500 
82.364	0.0439	0.1519	1.0327	-0.5493	-0.8514	5.1910	18.9600 
82.375	0.0879	0.0894	1.1753	-0.5658	-0.9778	5.0208	18.9500 
82.376	0.1406	0.0752	1.2500	-0.5878	-1.1646	4.8175	18.9400 
82.376	0.1445	-0.0029	1.3130	-0.4944	-1.3733	4.6198	18.9400 
82.376	0.1729	-0.0127	1.2896	-0.3955	-1.5436	4.3835	18.9400 
82.376	0.2153	-0.0542	1.1807	-0.3131	-1.6919	4.2737	18.9400 
82.386	0.2246	-0.1172	1.0596	-0.2417	-1.8677	4.3066	18.9400 
82.405	0.2236	-0.1567	1.0181	-0.3186	-1.9611	4.3066	18.9400 
82.516	0.1563	-0.2363	1.1650	-0.5493	-1.8951	4.1254	18.9500 
82.522	0.0894	-0.1729	1.2344	-0.6976	-1.7468	3.7848	18.9500 
82.522	0.0664	-0.0645	1.1406	-0.6866	-1.6095	3.5046	18.9500 
82.522	0.0874	-0.0298	1.0200	-0.6427	-1.4777	3.3453	18.9500 
82.522	0.1030	-0.0508	0.8623	-0.6372	-1.3733	3.3124	18.9500 
82.529	0.1123	-0.0605	0.8169	-0.6812	-1.2415	3.3289	18.9600 
82.550	0.1157	-0.0586	0.8335	-0.7361	-1.0822	3.3179	18.9300 
82.574	0.1123	-0.0396	0.8491	-0.7526	-0.9393	3.2684	18.9500 
82.596	0.1152	-0.0220	0.8550	-0.7361	-0.8295	3.2135	18.9400 
82.616	0.1191	-0.0190	0.8916	-0.7581	-0.7251	3.1641	18.9300 
82.624	0.1294	-0.0396	0.9312	-0.8240	-0.6372	3.1805	18.9400 
82.726	0.1265	-0.0249	0.9414	-0.9009	-0.5493	3.2410	18.9400 
82.742	0.1372	0.0352	0.9707	-0.9613	-0.4559	3.3179	18.9300 
82.742	0.1494	0.0645	0.9834	-0.9998	-0.3845	3.4003	18.9200 
82.742	0.1392	0.0742	1.0049	-1.0107	-0.3296	3.4882	18.9300 
82.742	0.1318	0.0693	1.0352	-0.9888	-0.2692	3.5815	18.9300 
82.760	0.1401	0.0659	1.0723	-0.9558	-0.2142	3.7244	18.9200 
82.766	0.1533	0.0806	1.0605	-0.9283	-0.1538	3.8947	18.9100 
82.785	0.1626	0.1021	1.0181	-0.8679	-0.0934	4.1254	18.9100 
82.805	0.1650	0.1143	1.0229	-0.7690	-0.0439	4.4055	18.9300 
82.832	0.1870	0.1572	1.0337	-0.6207	-0.0110	4.6912	18.9300 
82.940	0.1909	0.1377	1.0234	-0.4834	0.0220	4.9493	18.9400 
82.953	0.1240	0.0596	1.0767	-0.4010	0.1318	5.1196	18.9300 
82.953	0.0449	-0.0430	1.2168	-0.3735	0.3296	5.2295	18.9200 
82.953	0.0195	0.0391	1.4438	-0.2637	0.5164	5.3284	18.9200 
82.953	0.0342	0.1030	1.3506	-0.0055	0.6152	5.4657	18.9200 
82.953	-0.0176	0.1895	1.1060	0.1428	0.8405	5.4547	18.9200 
82.962	-0.0439	0.0327	0.9272	0.0879	1.1096	5.3888	18.9300 
82.983	-0.1226	-0.2866	0.9736	-0.2307	1.3074	5.2899	18.9200 
83.005	-0.1943	-0.3281	1.1084	-0.5219	1.3513	5.2185	18.9300 
83.022	-0.1602	-0.1577	1.1343	-0.6372	1.2415	5.2954	18.9200 
83.041	-0.0571	-0.0996	1.0835	-0.6702	1.0712	5.7074	18.9400 
83.155	0.0459	-0.0439	1.0957	-0.6866	0.8899	6.3226	18.9500 
83.169	0.0928	-0.0308	1.0864	-0.7581	0.7086	6.9214	18.9400 
83.171	0.1182	-0.0146	1.0024	-0.8734	0.5054	7.3993	18.9100 
83.171	0.0806	0.0029	0.9390	-0.9723	0.3131	7.7454	18.9300 
83.171	0.0225	0.0127	0.8906	-1.0382	0.1483	8.0145	18.9100 
83.177	0.0063	0.0298	0.8594	-1.0767	0.0275	8.2397	18.9200 
83.190	0.0313	0.0273	0.8398	-1.1151	-0.0549	8.4320	18.9100 
83.211	0.0410	0.0034	0.8530	-1.1975	-0.1318	8.6023	18.9000 
83.221	0.0317	-0.0098	0.9067	-1.2964	-0.1868	8.7231	18.9200 
83.240	0.0239	-0.0049	0.9487	-1.3843	-0.2307	8.8110	18.9300 
83.260	0.0298	0.0288	0.9697	-1.4008	-0.2637	8.9044	18.9300 
83.369	0.0352	0.0669	0.9766	-1.3678	-0.2527	8.9813	18.9300 
83.385	0.0454	0.0928	0.9897	-1.3293	-0.1923	9.0198	18.9400 
83.386	0.0469	0.1006	1.0044	-1.2964	-0.1099	9.0363	18.9300 
83.386	0.0532	0.1235	1.0063	-1.2469	-0.0439	9.0253	18.9200 
83.386	0.0566	0.1362	0.9985	-1.2030	0.0000	8.9813	18.9300 
83.403	0.0469	0.1372	1.0181	-1.1591	0.0275	8.8879	18.9100 
83.411	0.0156	0.1099	1.0503	-1.1261	0.0549	8.7396	18.9300 
83.429	-0.0122	0.0835	1.0693	-1.0767	0.0824	8.6133	18.9200 
83.449	-0.0337	0.0825	1.0767	-0.9888	0.1044	8.5529	18.9300 
83.473	-0.0303	0.1089	1.0820	-0.8569	0.1263	8.5748	18.9200 
83.573	0.0352	0.1187	1.1899	-0.7745	0.1044	8.5858	18.9300 
83.586	0.1382	0.1309	1.2598	-0.7745	-0.0165	8.5364	18.9100 
83.586	0.1772	0.0483	1.2651	-0.7196	-0.2087	8.4924	18.9200 
83.586	0.1680	0.0049	1.2344	-0.6427	-0.4010	8.4320	18.9300 
83.586	0.1680	-0.0942	1.1147	-0.5713	-0.6042	8.5199	18.9200 
83.586	0.1421	-0.1816	1.0293	-0.5328	-0.7635	8.7781	18.9100 
83.607	0.1147	-0.2041	1.0654	-0.7141	-0.6866	8.8770	18.9200 
83.628	0.0981	-0.2178	1.1270	-0.9668	-0.5054	8.8440	18.9200 
83.638	0.0557	-0.1538	1.1313	-1.0712	-0.3186	8.7451	18.9200 
83.658	0.0396	-0.0957	1.0991	-1.0876	-0.1593	8.6188	18.9200 
83.678	0.0508	-0.0615	1.0664	-1.1096	-0.0220	8.5089	18.9100 
83.777	0.0688	-0.0371	1.0146	-1.1591	0.1154	8.4155	18.9200 
83.791	0.1099	-0.0142	0.9268	-1.1920	0.2417	8.3826	18.9000 
83.792	0.1172	-0.0151	0.8799	-1.1975	0.3406	8.3990	18.9100 
83.792	0.0962	-0.0205	0.8682	-1.1865	0.4230	8.3826	18.8900 
83.792	0.0840	-0.0244	0.8687	-1.1591	0.4944	8.3331	18.9100 
83.799	0.0859	-0.0249	0.8667	-1.1316	0.5603	8.2507	18.9000 
83.817	0.0820	-0.0166	0.9048	-1.1316	0.6262	8.1738	18.9000 
83.836	0.1060	0.0000	0.9390	-1.1755	0.6921	8.1134	18.8900 
83.856	0.1138	0.0171	0.9688	-1.2469	0.7855	8.0530	18.9000 
83.877	0.1260	0.0332	0.9844	-1.3019	0.8734	8.0310	18.8900 
83.986	0.1226	0.0288	0.9829	-1.2909	0.9229	8.0750	18.8900 
83.997	0.1128	0.0278	1.0322	-1.2469	0.9613	8.1738	18.8900 
83.997	0.1104	0.0303	1.0630	-1.1975	1.0217	8.2947	18.9000 
83.997	0.1094	0.0435	1.0845	-1.1481	1.1206	8.4375	18.8900 
83.997	0.1138	0.0654	1.0713	-1.0437	1.2195	8.6188	18.8900 
84.004	0.1255	0.1104	1.0449	-0.8844	1.2854	8.8220	18.8900 
84.021	0.1401	0.1338	1.0098	-0.6757	1.2909	9.0417	18.8900 
84.043	0.1313	0.1206	0.9932	-0.4504	1.2744	9.2560	18.8900 
84.063	0.1128	0.0615	1.0269	-0.2417	1.2744	9.4318	18.8900 
84.087	0.0332	-0.0098	1.2515	-0.0659	1.2854	9.5581	18.8800 
84.195	0.0483	0.0898	1.3569	0.1373	1.2524	9.6515	18.8900 
84.209	0.0610	0.1826	1.2334	0.3351	1.2689	9.6954	18.8900 
84.209	-0.0210	0.1255	1.0688	0.3571	1.4557	9.5966	18.9000 
84.209	-0.1455	-0.1143	0.9741	0.1648	1.7908	9.4043	18.8800 
84.209	-0.1895	-0.2559	0.9980	-0.1263	2.0654	9.2505	18.8800 
84.210	-0.2241	-0.2495	1.1182	-0.4395	2.1808	9.2120	18.8900 
84.217	-0.1592	-0.1719	1.1514	-0.6866	2.1478	9.4208	18.8900 
84.238	-0.0933	-0.1152	1.1597	-0.8295	2.0435	9.9097	18.9000 
84.254	0.0039	-0.0469	1.1211	-0.9064	1.9006	10.4974	18.9000 
84.275	0.0635	-0.0356	1.0518	-0.9723	1.6864	11.0577	18.8900 
84.299	0.0864	-0.0059	0.9419	-1.0437	1.4337	11.5082	18.8900 
84.412	0.0513	0.0093	0.8994	-1.1096	1.2085	11.8103	18.8800 
84.425	-0.0044	-0.0029	0.8398	-1.1536	0.9943	12.0245	18.8800 
84.425	-0.0303	0.0063	0.8242	-1.1481	0.7800	12.1838	18.8700 
84.425	-0.0112	0.0186	0.8496	-1.1206	0.5438	12.3267	18.9000 
84.425	0.0146	0.0054	0.8862	-1.1316	0.3186	12.4475	18.8900 
84.425	0.0454	0.0293	0.9395	-1.1591	0.1154	12.5189	18.8800 
84.434	0.0620	0.0615	0.9512	-1.1536	-0.0494	12.5629	18.9000 
84.453	0.0615	0.0830	0.9551	-1.1206	-0.1813	12.5903	18.9000 
84.570	0.0454	0.0820	0.9736	-1.0547	-0.2802	12.5903	18.8800 
84.576	0.0283	0.0859	1.0308	-0.9888	-0.3571	12.5739	18.8700 
84.576	0.0342	0.1079	1.0537	-0.9558	-0.4065	12.5244	18.8900 
84.576	0.0557	0.1353	1.0405	-0.9338	-0.4504	12.4310	18.8900 
84.576	0.0610	0.1450	1.0308	-0.8899	-0.5164	12.3047	18.8900 
84.576	0.0635	0.1401	1.0483	-0.8350	-0.6317	12.1509	18.8800 
84.602	0.0493	0.1274	1.0688	-0.7910	-0.7581	11.9586	18.8700 
84.614	0.0190	0.1118	1.0713	-0.7251	-0.8899	11.7499	18.8700 
84.632	0.0269	0.1040	1.1064	-0.6482	-1.0052	11.5356	18.8700 
84.652	0.1362	0.0947	1.2568	-0.6207	-1.1371	11.2830	18.8700 
84.672	0.2085	0.0610	1.2617	-0.5933	-1.3293	11.0303	18.8800 
84.783	0.2207	0.0176	1.2407	-0.5438	-1.5051	10.7227	18.8700 
84.798	0.2212	-0.0508	1.1304	-0.4889	-1.7084	10.5359	18.8700 
84.798	0.2065	-0.1523	1.0293	-0.5273	-1.8622	10.5194	18.8800 
84.798	0.1768	-0.2681	1.0356	-0.7471	-1.9116	10.5304	18.8700 
84.798	0.1206	-0.2764	1.2183	-1.1151	-1.7743	10.2997	18.8600 
84.805	0.0894	-0.2036	1.2749	-1.3733	-1.5546	9.8932	18.8700 
84.818	0.0781	-0.0610	1.1064	-1.3898	-1.3953	9.5691	18.8600 
84.841	0.1084	-0.0591	0.9839	-1.3348	-1.3239	9.4153	18.8600 
84.863	0.1235	-0.1030	0.9067	-1.3568	-1.2854	9.3768	18.8700 
84.870	0.1113	-0.0884	0.8999	-1.3843	-1.2030	9.3164	18.8600 
84.890	0.1182	-0.0601	0.8838	-1.3678	-1.1096	9.2725	18.8600 
85.002	0.1240	-0.0234	0.8408	-1.3074	-1.0272	9.2615	18.8600 
85.014	0.1201	-0.0049	0.8091	-1.2195	-0.9448	9.2175	18.8600 
85.014	0.1138	-0.0200	0.8457	-1.1810	-0.8405	9.1351	18.8700 
85.014	0.1074	-0.0342	0.9082	-1.2195	-0.7086	9.0527	18.8600 
85.014	0.1099	-0.0317	0.9385	-1.2744	-0.5768	9.0198	18.8400 
85.020	0.1387	-0.0054	0.9692	-1.2854	-0.4669	9.0857	18.8700 
85.036	0.1519	0.0151	0.9863	-1.2469	-0.4010	9.2340	18.8600 
85.059	0.1519	0.0439	1.0005	-1.1426	-0.3571	9.4098	18.8600 
85.069	0.1475	0.0581	1.0098	-0.9943	-0.3186	9.5911	18.8600 
85.090	0.1416	0.0474	1.0303	-0.8130	-0.3076	9.8383	18.8400 
85.108	0.1377	0.0576	1.1006	-0.6372	-0.2856	10.1349	18.8500 
85.211	0.1528	0.0977	1.1357	-0.4449	-0.2252	10.4260	18.8600 
85.226	0.2192	0.2207	1.1050	-0.2582	-0.1703	10.6787	18.8400 
85.226	0.2583	0.2007	1.0518	-0.1758	-0.1099	10.8435	18.8500 
85.226	0.1758	0.0591	1.0747	-0.1978	0.0000	10.8984	18.8500 
85.226	0.0674	-0.0728	1.0991	-0.1593	0.1208	10.9698	18.8500 
85.233	-0.0405	-0.1221	1.2651	0.0000	0.2307	11.1127	18.8400 
85.248	-0.0083	0.0640	1.2290	0.4010	0.2692	11.3873	18.8500 
85.375	0.0591	0.0942	1.0298	0.8954	0.2252	11.8707	18.8400 
85.382	0.0254	0.0688	1.0269	1.1755	0.2362	12.2772	18.8300 
85.382	-0.0571	-0.0161	1.0605	1.2250	0.3076	12.4969	18.8500 
85.382	-0.1099	-0.0923	1.0972	1.1646	0.3900	12.6398	18.8400 
85.382	-0.1646	-0.0986	1.1909	1.0931	0.4285	12.8210	18.8300 
85.382	-0.0854	-0.0322	1.2056	1.0272	0.4120	13.0902	18.8300 
85.389	0.0303	0.0322	1.1768	0.9393	0.3461	13.4473	18.8400 
85.413	0.0625	0.0518	1.0962	0.8514	0.2582	13.7823	18.8300 
85.436	0.0762	0.0518	0.9414	0.7690	0.1263	14.0790	18.8300 
85.455	0.0640	0.0439	0.8555	0.6757	-0.0330	14.3646	18.8400 
85.476	0.0415	0.0156	0.7939	0.5658	-0.2032	14.6228	18.8300 
85.589	0.0293	0.0269	0.7896	0.4395	-0.3406	14.7876	18.8300 
85.602	0.0190	0.0591	0.8340	0.3241	-0.4120	14.8370	18.8200 
85.602	0.0278	0.0684	0.8628	0.1923	-0.4559	14.8480	18.8200 
85.602	0.0493	0.0488	0.9312	0.0165	-0.4669	14.8260	18.8200 
85.603	0.0479	0.0625	0.9629	-0.1978	-0.4230	14.7437	18.8100 
85.603	0.0273	0.0767	0.9697	-0.4175	-0.3296	14.5844	18.8200 
85.609	0.0161	0.0674	0.9639	-0.6372	-0.2417	14.4250	18.8100 
85.626	0.0073	0.0474	0.9951	-0.8350	-0.1813	14.2822	18.8000 
85.648	0.0044	0.0396	1.0156	-0.9943	-0.1428	14.1888	18.8100 
85.667	0.0024	0.0664	1.0557	-1.1041	-0.0989	14.1174	18.8200 
85.691	0.0313	0.1128	1.0562	-1.1646	-0.0714	14.0735	18.8100 
85.810	0.0674	0.1782	1.0332	-1.1700	-0.1154	14.0240	18.8000 
85.822	0.0835	0.1875	1.0176	-1.1591	-0.2197	13.9417	18.8000 
85.823	0.0439	0.1108	1.0381	-1.1646	-0.3131	13.8208	18.8000 
85.823	0.0059	0.0815	1.0454	-1.1755	-0.3735	13.6615	18.8100 
85.823	-0.0220	0.0654	1.0610	-1.1591	-0.4010	13.4802	18.8100 
85.823	0.0132	0.0259	1.1626	-1.1426	-0.4504	13.3044	18.8000 
85.830	0.1465	0.0366	1.3301	-1.1316	-0.6372	13.1342	18.8100 
85.848	0.2202	0.0234	1.3125	-1.0107	-0.9613	13.0188	18.8100 
85.867	0.2617	0.0073	1.1284	-0.7141	-1.4063	13.0737	18.8000 
85.889	0.2476	-0.1011	1.0483	-0.3790	-1.8567	13.3594	18.8200 
85.912	0.1504	-0.2817	1.0928	-0.2966	-2.0544	13.5846	18.8000 
86.017	0.1021	-0.2412	1.2300	-0.4614	-1.9391	13.4143	18.8000 
86.030	0.0537	-0.1665	1.2744	-0.5603	-1.6974	13.0463	18.7800 
86.030	0.0610	-0.1025	1.1958	-0.5164	-1.5271	12.7441	18.8000 
86.030	0.0664	-0.0298	1.1133	-0.3900	-1.4282	12.5079	18.8200 
86.030	0.0854	-0.0278	0.9795	-0.3406	-1.3898	12.3431	18.7900 
86.030	0.1006	-0.0601	0.9287	-0.3900	-1.3623	12.2223	18.8000 
86.050	0.0967	-0.0347	0.8862	-0.4559	-1.3074	12.0905	18.8000 
86.073	0.1030	-0.0229	0.8457	-0.4944	-1.2579	11.9971	18.7900 
86.093	0.1079	-0.0122	0.8296	-0.5493	-1.2030	11.8982	18.7900 
86.102	0.1172	-0.0142	0.8652	-0.6757	-1.1261	11.7773	18.8000 
86.123	0.1294	-0.0518	0.9043	-0.8405	-1.0547	11.6730	18.7700 
86.222	0.1284	-0.0298	0.9331	-0.9998	-0.9613	11.5906	18.7900 
86.235	0.1382	-0.0107	0.9346	-1.1426	-0.8514	11.5796	18.7800 
86.236	0.1445	0.0103	0.9390	-1.2415	-0.7361	11.6180	18.7700 
86.236	0.1611	0.0454	0.9600	-1.3184	-0.6262	11.6840	18.7900 
86.236	0.1641	0.0542	0.9785	-1.3733	-0.5273	11.7609	18.7900 
86.242	0.1592	0.0537	0.9893	-1.3898	-0.4175	11.8213	18.7700 
86.262	0.1494	0.0571	0.9883	-1.3623	-0.3021	11.8762	18.7700 
86.374	0.1348	0.0645	1.0000	-1.2689	-0.1978	11.9257	18.7600 
86.380	0.1279	0.0781	1.0283	-1.1261	-0.1044	11.9861	18.7700 
86.380	0.1577	0.1431	1.0464	-0.9448	-0.0330	12.0630	18.7700 
86.380	0.1880	0.1680	1.0410	-0.7855	0.0385	12.1234	18.7800 
86.380	0.1724	0.0972	1.0244	-0.6921	0.1373	12.1289	18.7700 
86.386	0.0938	0.0205	1.0415	-0.5878	0.2911	12.1014	18.7700 
86.408	-0.0220	-0.1152	1.1982	-0.3955	0.4285	12.1069	18.7600 
86.430	-0.0317	0.0029	1.2725	-0.0659	0.4834	12.1783	18.7700 
86.454	-0.0015	0.0527	1.1421	0.3516	0.4395	12.4146	18.7800 
86.462	-0.0498	0.0532	1.1514	0.5823	0.4779	12.6453	18.7600 
86.482	-0.0952	-0.0205	1.1460	0.5988	0.5713	12.7771	18.7800 
86.593	-0.0962	-0.1211	1.1416	0.4559	0.6372	12.8595	18.7800 
86.610	-0.1279	-0.1826	1.2510	0.2362	0.6372	12.9584	18.7700 
86.610	-0.0776	-0.0977	1.2349	0.0714	0.5548	13.1726	18.7800 
86.610	0.0190	-0.0171	1.1846	-0.0934	0.4559	13.5352	18.7700 
86.610	0.0342	-0.0044	1.1323	-0.2362	0.3680	13.9581	18.7800 
86.627	0.0527	0.0166	0.9966	-0.4065	0.2747	14.3591	18.7800 
86.634	0.0625	0.0347	0.9106	-0.5878	0.1758	14.7217	18.7900 
86.650	0.0649	0.0298	0.8193	-0.8020	0.0714	15.0238	18.7800 
86.670	0.0518	0.0313	0.7959	-1.0107	-0.0220	15.2490	18.7800 
86.681	0.0366	0.0103	0.8164	-1.2360	-0.1208	15.3864	18.7800 
86.701	0.0151	-0.0049	0.8389	-1.4557	-0.2142	15.4742	18.7700 
86.799	0.0044	-0.0313	0.8936	-1.6864	-0.2747	15.4852	18.7600 
86.812	0.0186	-0.0195	0.9312	-1.9116	-0.3076	15.4688	18.7600 
86.812	0.0396	0.0317	0.9409	-2.0654	-0.3241	15.4248	18.7600 
86.812	0.0415	0.0415	0.9224	-2.1259	-0.3461	15.3864	18.7700 
86.813	0.0151	0.0400	0.9448	-2.1259	-0.3845	15.3314	18.7800 
86.819	0.0005	0.0371	0.9688	-2.1149	-0.4120	15.2380	18.7800 
86.838	0.0000	0.0332	1.0176	-2.1094	-0.4340	15.1172	18.7600 
86.858	0.0176	0.0708	1.0542	-2.0709	-0.4889	14.9908	18.7700 
86.878	0.0400	0.1343	1.0659	-1.9611	-0.6317	14.8096	18.7500 
86.900	0.0518	0.1406	1.0718	-1.8182	-0.8350	14.5953	18.7600 
87.010	0.0503	0.1177	1.0786	-1.6589	-1.0547	14.3976	18.7500 
87.024	0.0303	0.0771	1.1147	-1.5051	-1.2469	14.2053	18.7700 
87.024	0.0640	0.0342	1.2114	-1.4063	-1.4337	13.9856	18.7600 
87.024	0.1782	0.0479	1.3135	-1.3074	-1.6699	13.7494	18.7600 
87.025	0.2002	0.0371	1.2627	-1.1096	-1.9391	13.5461	18.7500 
87.033	0.2339	-0.0254	1.1636	-0.9119	-2.2028	13.3649	18.7600 
87.046	0.2549	-0.0850	1.1235	-0.7800	-2.4774	13.2550	18.7500 
87.068	0.2563	-0.1533	1.0400	-0.7196	-2.7411	13.2166	18.7500 
87.078	0.2314	-0.1665	1.0771	-0.8459	-2.8345	13.0078	18.7500 
87.098	0.1533	-0.2202	1.1909	-1.0492	-2.8070	12.6782	18.7300 
87.117	0.0972	-0.1729	1.2339	-1.1646	-2.7026	12.2443	18.7400 
87.237	0.0991	-0.0581	1.1255	-1.1591	-2.5873	11.8597	18.7500 
87.252	0.1392	-0.0371	1.0073	-1.1426	-2.4664	11.6071	18.7400 
87.252	0.1494	-0.0488	0.8853	-1.1810	-2.3181	11.4478	18.7400 
87.253	0.1431	-0.0493	0.8379	-1.2305	-2.1259	11.2775	18.7400 
87.253	0.1255	-0.0508	0.8179	-1.2854	-1.8951	11.0522	18.7500 
87.253	0.1006	-0.0562	0.8096	-1.3239	-1.6425	10.7886	18.7400 
87.274	0.0991	-0.0596	0.8345	-1.3568	-1.4172	10.5469	18.7400 
87.281	0.1016	-0.0620	0.8760	-1.3843	-1.2305	10.3766	18.7300 
87.296	0.1328	-0.0249	0.9204	-1.4063	-1.0876	10.3052	18.7300 
87.317	0.1641	0.0063	0.9341	-1.4337	-0.9613	10.2722	18.7300 
87.337	0.1797	0.0288	0.9624	-1.4392	-0.8514	10.2612	18.7300 
87.449	0.1670	0.0474	0.9878	-1.4063	-0.7690	10.2667	18.7300 
87.463	0.1504	0.0474	1.0366	-1.3458	-0.6921	10.2832	18.7300 
87.464	0.1377	0.0337	1.0630	-1.2744	-0.6152	10.3217	18.7300 
87.464	0.1304	0.0278	1.0854	-1.1865	-0.5273	10.4041	18.7300 
87.464	0.1289	0.0493	1.0933	-1.0382	-0.4449	10.5469	18.7100 
87.464	0.1572	0.1289	1.0659	-0.8405	-0.3845	10.7391	18.7300 
87.484	0.1924	0.1602	1.0396	-0.6592	-0.3351	10.9424	18.7300 
87.508	0.1870	0.1128	1.0488	-0.5438	-0.2747	11.1017	18.7200 
87.614	0.1177	0.0234	1.1162	-0.4669	-0.2032	11.2225	18.7300 
87.631	0.0298	-0.0029	1.3418	-0.3790	-0.1373	11.3104	18.7200 
87.631	0.0415	0.0610	1.2754	-0.1813	-0.1593	11.4587	18.7200 
87.632	-0.0049	0.0762	1.1333	0.0165	-0.1208	11.6675	18.7100 
87.632	-0.0459	-0.0029	1.0366	0.0714	0.0000	11.8378	18.7200 
87.632	-0.0801	-0.1323	1.0171	-0.0714	0.1154	11.9202	18.7000 
87.650	-0.1011	-0.1709	1.0581	-0.2856	0.1428	12.0190	18.7100 
87.656	-0.1050	-0.1162	1.1235	-0.4724	0.0989	12.1893	18.7100 
87.674	-0.0498	-0.0742	1.1240	-0.6152	0.0330	12.4915	18.7100 
87.694	0.0156	-0.0190	1.1147	-0.7526	-0.0275	12.9089	18.7100 
87.717	0.0620	0.0068	1.0669	-0.9174	-0.0934	13.3154	18.7100 
87.831	0.0908	0.0229	0.9287	-1.1261	-0.1703	13.6560	18.7200 
87.846	0.0679	0.0200	0.8677	-1.3568	-0.2472	13.9252	18.7200 
87.846	0.0215	-0.0093	0.8462	-1.5820	-0.3351	14.1229	18.7100 
87.846	0.0078	-0.0068	0.8657	-1.7633	-0.4449	14.2712	18.7100 
87.846	0.0044	-0.0068	0.8726	-1.8951	-0.5548	14.4141	18.7100 
87.846	0.0127	0.0229	0.8799	-1.9775	-0.6537	14.5679	18.7100 
87.853	0.0356	0.0415	0.8906	-2.0380	-0.7471	14.7437	18.6900 
87.872	0.0620	0.0479	0.9126	-2.1094	-0.8405	14.8590	18.6900 
87.892	0.0596	0.0635	0.9448	-2.1918	-0.9119	14.8975	18.6800 
87.914	0.0303	0.0684	0.9507	-2.2192	-0.9778	14.9084	18.7000 
87.935	0.0220	0.0669	0.9634	-2.2247	-1.0327	14.9084	18.7000 
88.043	0.0239	0.0688	0.9990	-2.2522	-1.0657	14.8920	18.6900 
88.058	0.0322	0.0781	1.0361	-2.2852	-1.1096	14.8315	18.6900 
88.058	0.0532	0.1016	1.0835	-2.3181	-1.1865	14.6997	18.6900 
88.058	0.0522	0.1011	1.0977	-2.3071	-1.3074	14.4965	18.6800 
88.058	0.0264	0.0913	1.1035	-2.2357	-1.4557	14.2603	18.6800 
88.065	0.0083	0.0586	1.0967	-2.1204	-1.6205	14.0625	18.6800 
88.076	0.0347	0.0151	1.2046	-2.0215	-1.7633	13.8922	18.6800 
88.099	0.1250	0.0259	1.3125	-1.9336	-1.9666	13.7604	18.6800 
88.122	0.2266	0.0107	1.2349	-1.7139	-2.2906	13.7659	18.6900 
88.131	0.2432	0.0269	1.1846	-1.4447	-2.5928	13.7494	18.7000 
88.252	0.2720	-0.0845	1.0903	-1.2030	-2.9169	13.8043	18.6800 
88.265	0.2720	-0.1499	1.0581	-1.0822	-3.1915	13.8922	18.6800 
88.265	0.2378	-0.2065	1.0991	-1.1536	-3.2904	13.8373	18.6900 
88.265	0.1851	-0.2300	1.1694	-1.3184	-3.2080	13.6011	18.6700 
88.265	0.0972	-0.1738	1.2383	-1.4337	-3.0048	13.2605	18.6600 
88.266	0.0942	-0.0938	1.1758	-1.4557	-2.7905	12.9529	18.6700 
88.272	0.1318	-0.0181	1.0020	-1.4447	-2.5763	12.7606	18.6800 
88.289	0.1533	-0.0146	0.8843	-1.4667	-2.3840	12.6563	18.6700 
88.414	0.1729	-0.0400	0.8223	-1.5491	-2.1588	12.5519	18.6800 
88.420	0.1548	-0.0508	0.8340	-1.6589	-1.9006	12.3871	18.6600 
88.420	0.1182	-0.0405	0.8296	-1.7413	-1.6095	12.1454	18.6600 
88.420	0.1084	-0.0459	0.8350	-1.8018	-1.3348	11.8817	18.6700 
88.420	0.1128	-0.0693	0.8779	-1.9171	-1.0712	11.6345	18.6600 
88.420	0.1162	-0.0591	0.9243	-2.0929	-0.8075	11.4093	18.6600 
88.428	0.1348	-0.0317	0.9473	-2.2522	-0.5658	11.2500	18.6600 
88.449	0.1548	-0.0112	0.9561	-2.3566	-0.3790	11.1566	18.6300 
88.471	0.1606	0.0107	0.9775	-2.4115	-0.2362	11.1127	18.6300 
88.498	0.1504	0.0112	1.0010	-2.4335	-0.1044	11.0687	18.6600 
88.518	0.1245	-0.0015	1.0313	-2.4280	0.0275	11.0577	18.6500 
88.630	0.1191	-0.0186	1.0444	-2.3950	0.1758	11.0907	18.6400 
88.644	0.1089	0.0098	1.0625	-2.3016	0.3406	11.1951	18.6500 
88.644	0.1392	0.0771	1.0542	-2.1478	0.4944	11.3379	18.6400 
88.644	0.2026	0.1587	1.0068	-1.9666	0.5988	11.5192	18.6500 
88.644	0.2109	0.1323	1.0093	-1.8347	0.6921	11.6730	18.6400 
88.644	0.1157	-0.0439	1.0957	-1.7743	0.8075	11.7828	18.6500 
88.652	-0.0059	-0.1538	1.2559	-1.7084	0.9613	11.8762	18.6500 
88.667	-0.0474	-0.0269	1.3843	-1.5106	1.0986	12.0026	18.6400 
88.689	-0.0146	0.0547	1.2905	-1.2195	1.2030	12.2278	18.6300 
88.713	-0.0537	0.1035	1.0757	-1.0492	1.4063	12.4255	18.6500 
88.733	-0.0728	0.0161	0.9800	-1.0822	1.6754	12.5134	18.6400 
88.839	-0.1016	-0.1470	0.9937	-1.3074	1.8182	12.6013	18.6600 
88.852	-0.1782	-0.2334	1.1494	-1.5491	1.8073	12.7002	18.6400 
88.852	-0.1421	-0.1338	1.1528	-1.7084	1.6974	12.8815	18.6400 
88.852	-0.0229	-0.0488	1.0991	-1.8347	1.5875	13.2166	18.6400 
88.852	0.0337	-0.0239	1.0571	-1.9391	1.4172	13.6340	18.6500 
88.858	0.0811	-0.0122	1.0039	-2.0544	1.1810	14.0460	18.6300 
88.873	0.0728	0.0024	0.9165	-2.1698	0.8954	14.3866	18.6300 
88.892	0.0371	-0.0083	0.8403	-2.3016	0.6427	14.6393	18.6400 
88.916	0.0200	-0.0352	0.8208	-2.4225	0.4065	14.8755	18.6300 
88.926	-0.0015	-0.0195	0.8530	-2.5159	0.2252	15.0513	18.6300 
89.043	-0.0015	-0.0122	0.8916	-2.6038	0.0934	15.1776	18.6300 
89.056	0.0342	-0.0107	0.9268	-2.7026	0.0055	15.3094	18.6200 
89.056	0.0503	0.0049	0.9385	-2.8070	-0.0330	15.4083	18.6300 
89.056	0.0640	0.0293	0.9385	-2.8729	-0.0275	15.4523	18.6300 
89.056	0.0610	0.0410	0.9277	-2.8729	-0.0330	15.4907	18.6300 
89.056	0.0205	0.0293	0.9653	-2.8455	-0.0275	15.5127	18.6300 
89.065	0.0093	0.0410	1.0234	-2.7905	-0.0220	15.4852	18.6300 
89.085	0.0117	0.0894	1.0688	-2.7026	-0.0220	15.4138	18.6200 
89.105	0.0264	0.1382	1.0518	-2.5763	-0.0494	15.3204	18.6100 
89.124	0.0366	0.1377	1.0278	-2.4500	-0.0879	15.1831	18.6300 
89.148	0.0244	0.1206	1.0347	-2.3236	-0.1428	15.0018	18.6200 
89.252	0.0078	0.1006	1.0273	-2.1918	-0.2417	14.7821	18.6200 
89.266	0.0005	0.0864	1.0547	-2.0654	-0.3680	14.5624	18.6200 
89.266	0.0376	0.0166	1.2065	-1.9666	-0.5109	14.3646	18.6100 
89.267	0.1416	-0.0005	1.3403	-1.9061	-0.7361	14.1724	18.6100 
89.267	0.2153	-0.0347	1.3213	-1.7578	-1.0986	14.0735	18.6200 
89.274	0.2163	-0.0986	1.2695	-1.5546	-1.4886	14.0735	18.6200 
89.286	0.2197	-0.1382	1.1279	-1.3458	-1.8512	14.1833	18.6200 
89.309	0.2007	-0.1548	1.0898	-1.2909	-2.0050	14.2328	18.6100 
89.332	0.1602	-0.1689	1.1362	-1.3898	-1.9171	14.0570	18.6200 
89.354	0.1055	-0.1753	1.1646	-1.5051	-1.7358	13.7384	18.6200 
89.457	0.0435	-0.1289	1.1318	-1.5546	-1.5436	13.3484	18.6100 
89.470	0.0283	-0.1084	1.0601	-1.5436	-1.3953	12.9913	18.6000 
89.470	0.0313	-0.0742	0.9648	-1.5051	-1.2634	12.7002	18.6000 
89.470	0.0645	-0.0532	0.8999	-1.4502	-1.1536	12.5079	18.6000 
89.470	0.1138	-0.0317	0.8184	-1.3788	-1.0822	12.4036	18.6000 
89.470	0.1191	-0.0342	0.8066	-1.3184	-1.0327	12.3102	18.6000 
89.489	0.0947	-0.0073	0.8501	-1.2799	-0.9613	12.1124	18.6000 
89.514	0.0962	-0.0181	0.8682	-1.2579	-0.8734	11.8542	18.5900 
89.522	0.1084	-0.0464	0.9331	-1.3293	-0.7581	11.6016	18.6000 
89.542	0.1138	-0.0259	0.9844	-1.4392	-0.6042	11.3489	18.6000 
89.562	0.1372	0.0000	1.0137	-1.5216	-0.4944	11.2335	18.6000 
89.666	0.1558	0.0220	1.0171	-1.5765	-0.3900	11.1731	18.5900 
89.681	0.1650	0.0518	0.9873	-1.5765	-0.3241	11.1401	18.6000 
89.681	0.1543	0.0420	0.9868	-1.5546	-0.2637	11.1237	18.5800 
89.681	0.1265	0.0151	1.0093	-1.5271	-0.1758	11.1292	18.5700 
89.681	0.0889	-0.0024	1.0415	-1.4612	-0.0659	11.1676	18.5700 
89.688	0.0786	0.0273	1.0474	-1.2964	0.0330	11.2775	18.5500 
89.701	0.1323	0.1104	1.0210	-1.0822	0.1154	11.4587	18.5800 
89.724	0.1836	0.1470	0.9937	-0.8734	0.1648	11.6510	18.5900 
89.743	0.1875	0.1172	0.9746	-0.7086	0.2087	11.7883	18.5800 
89.767	0.1167	0.0127	1.0415	-0.5988	0.2747	11.8488	18.5500 
89.881	-0.0054	-0.0581	1.3047	-0.4669	0.3351	11.8597	18.5700 
89.893	0.0181	0.0562	1.2358	-0.1428	0.2747	11.9586	18.5700 
89.894	-0.0386	0.0210	1.1157	0.2087	0.2747	12.1399	18.5700 
89.894	-0.0737	-0.0757	1.1167	0.3516	0.3186	12.2937	18.5600 
89.894	-0.1265	-0.1309	1.1782	0.3296	0.4065	12.4036	18.5700 
89.894	-0.1377	-0.1724	1.1919	0.2911	0.4614	12.6013	18.5700 
89.900	-0.1099	-0.0703	1.2095	0.3131	0.4395	12.9803	18.5600 
89.920	-0.0264	-0.0020	1.1826	0.3516	0.3680	13.5242	18.5600 
90.044	0.0806	0.0645	1.1226	0.3131	0.2856	14.1010	18.5600 
90.050	0.1016	0.0820	1.0391	0.2417	0.2032	14.5844	18.5700 
90.050	0.0820	0.0757	0.8970	0.1263	0.1263	14.9139	18.5700 
90.050	0.0444	0.0493	0.8301	-0.0110	0.0549	15.1556	18.5500 
90.050	-0.0186	0.0195	0.7974	-0.1758	-0.0110	15.3149	18.5700 
90.050	-0.0254	0.0210	0.8037	-0.3131	-0.0879	15.4578	18.5400 
90.059	0.0010	0.0337	0.8428	-0.4285	-0.1703	15.6006	18.5600 
90.080	0.0200	0.0439	0.8677	-0.5658	-0.2362	15.7214	18.5500 
90.103	0.0508	0.0562	0.8887	-0.6976	-0.2802	15.7819	18.5500 
90.125	0.0518	0.0610	0.9116	-0.8075	-0.3406	15.8203	18.5500 
90.149	0.0327	0.0732	0.9282	-0.8789	-0.4120	15.8203	18.5500 
90.249	0.0103	0.0723	0.9390	-0.9229	-0.4669	15.7599	18.5400 
90.262	-0.0068	0.0811	0.9731	-0.9723	-0.4834	15.6720	18.5600 
90.262	-0.0015	0.0894	0.9946	-1.0327	-0.4889	15.5676	18.5400 
90.262	0.0376	0.1147	1.0430	-1.1206	-0.5109	15.4193	18.5500 
90.262	0.0483	0.1201	1.0879	-1.2140	-0.5878	15.1941	18.5500 
90.268	0.0186	0.1055	1.1162	-1.2469	-0.7031	14.8865	18.5500 
90.282	-0.0034	0.0962	1.1289	-1.2085	-0.8569	14.5789	18.5400 
90.306	0.0239	0.0454	1.2500	-1.1700	-1.0217	14.3427	18.5400 
90.325	0.1245	0.0488	1.3936	-1.1646	-1.2305	14.2163	18.5400 
90.347	0.2153	-0.0083	1.3535	-1.1041	-1.5710	14.2383	18.5400 
90.453	0.2075	0.0112	1.2915	-0.9668	-1.8732	14.2822	18.5500 
90.466	0.2285	-0.0220	1.1055	-0.7471	-2.2028	14.4305	18.5500 
90.466	0.2300	-0.0513	1.0093	-0.5658	-2.4554	14.5624	18.5400 
90.466	0.2573	-0.1270	0.9795	-0.6372	-2.5159	14.4965	18.5500 
90.466	0.2261	-0.1694	1.0063	-0.8624	-2.4225	14.1943	18.5200 
90.466	0.1133	-0.2524	1.0977	-1.1206	-2.2137	13.7219	18.5300 
90.487	0.0537	-0.2373	1.1445	-1.2964	-1.9940	13.2056	18.5300 
90.497	0.0503	-0.1533	1.1040	-1.3403	-1.7908	12.8156	18.5300 
90.516	0.0859	-0.0835	1.0376	-1.3568	-1.6040	12.5739	18.5200 
90.536	0.1621	-0.0225	0.8896	-1.3623	-1.4612	12.4750	18.5300 
90.558	0.1929	0.0020	0.8447	-1.3898	-1.3184	12.3816	18.5100 
90.677	0.1904	-0.0083	0.8228	-1.4447	-1.1810	12.2223	18.5100 
90.692	0.1250	-0.0225	0.8521	-1.5491	-0.9943	11.8982	18.4900 
90.692	0.0991	-0.0454	0.8706	-1.7029	-0.7745	11.4917	18.4900 
90.693	0.0850	-0.0815	0.9028	-1.9116	-0.5438	11.1346	18.4900 
90.693	0.0879	-0.0708	0.9282	-2.1039	-0.3241	10.8875	18.5000 
90.693	0.1177	-0.0513	0.9614	-2.2632	-0.1648	10.7886	18.5000 
90.713	0.1406	-0.0386	0.9692	-2.3676	-0.0549	10.7941	18.4900 
90.724	0.1509	-0.0093	0.9844	-2.4335	0.0549	10.8105	18.5000 
90.736	0.1494	0.0088	0.9956	-2.4390	0.1648	10.8545	18.5100 
90.755	0.1450	-0.0024	1.0425	-2.4170	0.2582	10.9369	18.5000 
90.774	0.1372	-0.0269	1.0669	-2.3840	0.3571	11.0687	18.5000 
90.885	0.1089	0.0176	1.0957	-2.2687	0.4834	11.2115	18.4900 
90.898	0.1313	0.0996	1.0610	-2.0654	0.5878	11.3983	18.4900 
90.898	0.2031	0.1553	1.0254	-1.8457	0.6537	11.6510	18.5000 
90.898	0.2202	0.1372	1.0264	-1.6644	0.6976	11.8927	18.4900 
90.898	0.1338	0.0239	1.0933	-1.5381	0.7581	12.0575	18.5000 
90.905	0.0391	-0.0703	1.2134	-1.4063	0.8459	12.1674	18.4800 
90.921	-0.0098	0.0249	1.3301	-1.1591	0.9009	12.3102	18.4900 
90.945	0.0151	0.0605	1.2534	-0.8020	0.9283	12.5739	18.4800 
90.964	-0.0273	0.0830	1.0713	-0.5768	1.0382	12.8101	18.4700 
90.973	-0.0703	-0.0259	0.9629	-0.5823	1.2250	12.9364	18.4800 
90.993	-0.1255	-0.2456	1.0435	-0.8295	1.3678	13.0023	18.4900 
91.103	-0.1826	-0.2661	1.1587	-1.0492	1.3953	13.1122	18.4900 
91.109	-0.1411	-0.0850	1.1597	-1.1041	1.3129	13.3813	18.4900 
91.109	-0.0469	-0.0225	1.1206	-1.1646	1.2360	13.8098	18.4800 
91.109	0.0400	0.0044	1.0894	-1.3019	1.1646	14.2163	18.4800 
91.109	0.0757	0.0103	1.0381	-1.4886	1.0437	14.5404	18.4800 
91.115	0.0640	0.0352	0.9346	-1.6974	0.8954	14.7437	18.4800 
91.140	0.0410	0.0078	0.8638	-1.9116	0.7306	14.8865	18.4800 
91.158	-0.0049	-0.0400	0.8057	-2.1259	0.5768	15.0183	18.4700 
91.253	-0.0210	-0.0498	0.8237	-2.3236	0.4395	15.1282	18.4800 
91.266	-0.0146	-0.0420	0.8555	-2.4884	0.3351	15.2216	18.4800 
91.266	0.0010	-0.0264	0.8950	-2.6367	0.2692	15.2930	18.4900 
91.266	0.0308	-0.0288	0.9551	-2.7740	0.2197	15.3534	18.4700 
91.267	0.0439	-0.0098	0.9702	-2.8564	0.1758	15.3699	18.4800 
91.274	0.0303	0.0562	0.9521	-2.8400	0.1483	15.3369	18.4600 
91.297	0.0269	0.0625	0.9502	-2.7960	0.1538	15.2765	18.4600 
91.316	0.0278	0.0723	0.9653	-2.7905	0.1978	15.1886	18.4900 
91.336	0.0225	0.0752	0.9985	-2.8015	0.2527	15.0732	18.4900 
91.358	0.0239	0.1016	1.0381	-2.7960	0.2692	14.9469	18.4700 
91.493	0.0342	0.1099	1.0635	-2.8015	0.2472	14.7601	18.4700 
91.499	0.0093	0.0913	1.0908	-2.8015	0.1813	14.5074	18.4800 
91.499	-0.0210	0.0796	1.1074	-2.7740	0.0989	14.2218	18.4900 
91.499	-0.0171	0.0752	1.0918	-2.7191	-0.0055	13.9581	18.4900 
91.499	0.0020	0.0884	1.0615	-2.6312	-0.1428	13.7274	18.4800 
91.499	0.0249	0.1074	1.0796	-2.5049	-0.3131	13.5297	18.4800 
91.499	0.1187	0.0571	1.2188	-2.4005	-0.5713	13.3868	18.4700 
91.510	0.1665	0.0264	1.2202	-2.2247	-0.9613	13.2825	18.4900 
91.529	0.1880	0.0000	1.2153	-2.0105	-1.3568	13.1177	18.4700 
91.549	0.2339	-0.1040	1.1616	-1.7908	-1.8512	13.1012	18.4800 
91.573	0.2817	-0.1841	1.1294	-1.6699	-2.3401	13.2220	18.4600 
91.592	0.2681	-0.2178	1.1172	-1.6809	-2.6422	13.2935	18.4600 
91.697	0.1865	-0.2451	1.1689	-1.8018	-2.6642	13.0847	18.4800 
91.709	0.1021	-0.2578	1.2139	-1.9391	-2.4829	12.7332	18.4900 
91.710	0.0322	-0.1201	1.1563	-1.9720	-2.1863	12.2717	18.4500 
91.710	0.0483	0.0024	1.0493	-1.8677	-1.8842	11.8597	18.4600 
91.710	0.1094	-0.0107	0.8511	-1.8018	-1.6644	11.6290	18.4800 
91.716	0.1367	-0.0562	0.7900	-1.8073	-1.4777	11.4423	18.4700 
91.733	0.1201	-0.0698	0.8169	-1.8622	-1.2689	11.1621	18.4800 
91.753	0.1011	-0.0801	0.8296	-1.8951	-1.0327	10.7996	18.4700 
91.777	0.0796	-0.0435	0.8643	-1.9116	-0.7526	10.3766	18.4700 
91.799	0.1001	-0.0337	0.8799	-1.9391	-0.5109	10.0415	18.4700 
91.903	0.1289	-0.0259	0.9390	-1.9830	-0.3516	9.8547	18.4500 
91.920	0.1445	-0.0288	0.9702	-2.0435	-0.2197	9.6954	18.4500 
91.921	0.1494	0.0078	0.9946	-2.1149	-0.0934	9.5197	18.4700 
91.921	0.1597	0.0293	0.9971	-2.1643	0.0055	9.3549	18.4700 
91.921	0.1553	0.0381	1.0039	-2.1753	0.0824	9.2175	18.4700 
91.921	0.1401	0.0337	1.0249	-2.1863	0.1483	9.0472	18.4800 
91.938	0.1108	0.0156	1.0518	-2.1918	0.2252	8.8770	18.4700 
91.948	0.0928	0.0117	1.0459	-2.1368	0.3131	8.7671	18.4500 
91.967	0.0835	0.0327	1.0645	-2.0160	0.4120	8.7671	18.4700 
91.988	0.1191	0.0825	1.0684	-1.8347	0.4889	8.8879	18.4700 
92.007	0.1792	0.1440	1.0381	-1.6315	0.5383	9.0692	18.4600 
92.127	0.1904	0.1387	1.0371	-1.4447	0.5988	9.2230	18.4700 
92.134	0.1279	0.0322	1.0405	-1.2799	0.6757	9.3109	18.4600 
92.134	0.0479	-0.0571	1.1108	-1.0876	0.7581	9.3878	18.4700 
92.134	0.0020	-0.0088	1.2310	-0.7855	0.7745	9.5581	18.4700 
92.134	0.0259	0.0381	1.1455	-0.2856	0.6647	9.9371	18.4800 
92.134	-0.0259	0.0054	1.1416	0.1373	0.6042	10.3052	18.4700 
92.146	-0.0684	-0.0278	1.1431	0.3461	0.6482	10.5084	18.4600 
92.166	-0.1030	-0.0586	1.1255	0.2966	0.8075	10.5579	18.4800 
92.287	-0.1201	-0.1450	1.1479	0.1318	0.9613	10.6073	18.4600 
92.293	-0.1162	-0.1392	1.2158	-0.0494	0.9943	10.7556	18.4600 
92.293	-0.0488	-0.0742	1.1870	-0.1868	0.9558	10.9753	18.4800 
92.293	0.0156	-0.0229	1.1011	-0.3186	0.8899	11.2720	18.4700 
92.293	0.0425	0.0234	1.0112	-0.4230	0.7745	11.6016	18.4700 
92.293	0.0674	0.0615	0.8936	-0.5273	0.6262	11.9421	18.4700 
92.305	0.0713	0.0454	0.8267	-0.6702	0.4559	12.2388	18.4700 
92.326	0.0356	0.0166	0.8071	-0.9119	0.2802	12.4420	18.4800 
92.347	0.0176	-0.0103	0.8013	-1.1536	0.1263	12.5793	18.4800 
92.366	0.0054	-0.0151	0.8149	-1.3568	-0.0439	12.6947	18.4700 
92.386	0.0098	-0.0293	0.8804	-1.5491	-0.2252	12.8101	18.4600 
92.495	0.0186	-0.0508	0.9180	-1.7249	-0.3900	12.9254	18.4800 
92.508	0.0410	-0.0132	0.9712	-1.8347	-0.5328	13.0408	18.4600 
92.508	0.0591	0.0400	0.9780	-1.8182	-0.6866	13.2001	18.4600 
92.508	0.0913	0.0840	0.9756	-1.7413	-0.8405	13.3923	18.4600 
92.508	0.0928	0.0972	0.9663	-1.6589	-0.9613	13.5352	18.4600 
92.514	0.0811	0.1064	0.9531	-1.6040	-1.0437	13.5901	18.4600 
92.531	0.0718	0.1064	0.9668	-1.5820	-1.1041	13.5901	18.4600 
92.555	0.0625	0.1030	1.0322	-1.5820	-1.1646	13.5297	18.4600 
92.574	0.0640	0.1113	1.0693	-1.5765	-1.2469	13.4033	18.4400 
92.584	0.0659	0.1177	1.0991	-1.5326	-1.3623	13.2440	18.4700 
92.603	0.0610	0.1089	1.1094	-1.4612	-1.4996	13.0902	18.4600 
92.714	0.0586	0.1255	1.1050	-1.3403	-1.6260	12.9858	18.4500 
92.721	0.0664	0.1260	1.1079	-1.2030	-1.7468	12.8979	18.4600 
92.721	0.1348	0.0923	1.2544	-1.1206	-1.8787	12.7771	18.4500 
92.721	0.2148	0.1011	1.2485	-1.0052	-2.1368	12.6617	18.4600 
92.721	0.2007	0.0376	1.2642	-0.8130	-2.4280	12.5244	18.4300 
92.727	0.2271	-0.0513	1.1445	-0.6427	-2.7411	12.4310	18.4400 
92.750	0.2241	-0.1504	1.0703	-0.5548	-2.9663	12.4146	18.4500 
92.771	0.2173	-0.2241	1.0317	-0.5493	-3.0981	12.4200	18.4400 
92.791	0.1982	-0.2305	1.1240	-0.6812	-3.0212	12.2278	18.4300 
92.802	0.1621	-0.2168	1.2202	-0.8130	-2.8619	11.8982	18.4200 
92.916	0.0967	-0.1304	1.2368	-0.8624	-2.6367	11.4587	18.4300 
92.923	0.0742	-0.0415	1.1572	-0.8295	-2.3566	10.9863	18.4300 
92.923	0.1035	-0.0366	1.0015	-0.8240	-2.0654	10.6348	18.4300 
92.923	0.1187	-0.0410	0.9233	-0.8734	-1.7853	10.3766	18.4300 
92.923	0.1377	-0.0347	0.8550	-0.9503	-1.5161	10.1074	18.4500 
92.923	0.1304	-0.0430	0.8364	-1.0382	-1.2634	9.8053	18.4400 
92.949	0.0820	-0.0537	0.8398	-1.1096	-1.0107	9.4263	18.4500 
92.971	0.0649	-0.0708	0.8550	-1.1426	-0.7910	9.0417	18.4300 
92.981	0.0703	-0.0845	0.9004	-1.1865	-0.6207	8.7122	18.4400 
93.001	0.0879	-0.0586	0.9326	-1.2524	-0.4614	8.4210	18.4200 
93.021	0.1177	-0.0151	0.9736	-1.2964	-0.2966	8.1903	18.4300 
93.123	0.1445	0.0059	0.9766	-1.3129	-0.1593	8.0310	18.4300 
93.136	0.1470	0.0356	0.9897	-1.2799	-0.0549	7.9321	18.4300 
93.136	0.1387	0.0420	0.9985	-1.2250	0.0220	7.8772	18.4300 
93.136	0.1265	0.0186	1.0283	-1.1865	0.0989	7.8607	18.4300 
93.136	0.1187	0.0093	1.0386	-1.1536	0.1868	7.8937	18.4200 
93.143	0.1050	0.0313	1.0347	-1.0602	0.2911	7.9926	18.4300 
93.162	0.1079	0.0757	1.0391	-0.9064	0.3735	8.1519	18.4200 
93.183	0.1709	0.1636	1.0015	-0.7196	0.4065	8.3826	18.4300 
93.205	0.2085	0.1582	0.9697	-0.5768	0.3900	8.6298	18.4400 
93.226	0.1685	0.0967	0.9932	-0.5164	0.4230	8.7836	18.4500 
93.347	0.1001	0.0103	1.0112	-0.4779	0.4834	8.8879	18.4400 
93.353	-0.0073	-0.0869	1.2031	-0.4230	0.5493	8.9978	18.4000 
93.353	0.0107	0.0215	1.2217	-0.2197	0.5219	9.2120	18.4000 
93.353	0.0298	0.0171	1.1587	0.1428	0.4285	9.6460	18.4200 
93.353	-0.0107	0.0195	1.1938	0.3845	0.4285	10.0085	18.4100 
93.353	-0.0781	-0.0156	1.1509	0.4120	0.5493	10.1678	18.4100 
93.359	-0.1577	-0.0664	1.1187	0.2252	0.8130	10.1239	18.4100 
93.380	-0.1816	-0.1548	1.1309	-0.0275	1.0107	10.1898	18.4100 
93.515	-0.1362	-0.1504	1.2070	-0.3021	1.1096	10.3876	18.4200 
93.522	-0.0493	-0.0947	1.1729	-0.5878	1.1041	10.7391	18.4200 
93.522	0.0186	-0.0249	1.0684	-0.8789	1.0712	11.0852	18.4000 
93.522	0.0308	-0.0044	0.9873	-1.1700	0.9943	11.3983	18.4100 
93.522	0.0313	-0.0146	0.9019	-1.4832	0.9064	11.6620	18.4100 
93.522	0.0137	-0.0190	0.8838	-1.8182	0.7965	11.8213	18.4100 
93.522	-0.0210	-0.0542	0.8887	-2.1423	0.6976	11.8597	18.4100 
93.537	-0.0439	-0.0664	0.8867	-2.4280	0.5878	11.8103	18.4000 
93.558	-0.0640	-0.0664	0.8882	-2.6532	0.4944	11.6949	18.4000 
93.578	-0.0400	-0.0928	0.8936	-2.8510	0.3845	11.6345	18.4100 
93.598	-0.0073	-0.0771	0.9580	-3.0267	0.2747	11.6125	18.4100 
93.618	0.0117	-0.0273	0.9839	-3.1366	0.1758	11.5741	18.4200 
93.731	0.0352	0.0176	0.9907	-3.1915	0.1154	11.4862	18.4000 
93.743	0.0332	0.0205	0.9819	-3.2410	0.0824	11.3434	18.4000 
93.743	0.0176	0.0234	0.9785	-3.3234	0.0934	11.1017	18.4000 
93.743	0.0029	0.0161	0.9912	-3.4387	0.1208	10.8105	18.3900 
93.743	-0.0088	-0.0005	0.9946	-3.5486	0.1099	10.5194	18.4000 
93.743	-0.0098	0.0303	1.0107	-3.6255	0.0769	10.2173	18.4100 
93.766	-0.0039	0.0527	1.0088	-3.6639	0.0110	9.8987	18.3900 
93.789	0.0068	0.0552	1.0034	-3.6694	-0.0879	9.5856	18.4000 
93.798	0.0181	0.0498	1.0132	-3.6530	-0.2362	9.2889	18.4000 
93.817	0.0210	0.0464	1.0244	-3.6035	-0.4340	9.0253	18.4000 
93.836	0.0337	0.0566	1.0513	-3.5211	-0.6702	8.8000	18.3900 
93.935	0.0464	0.0801	1.0430	-3.4058	-0.9448	8.6023	18.3900 
93.949	0.0635	0.0903	1.0381	-3.2684	-1.2140	8.3990	18.4000 
93.949	0.0781	0.0542	1.0996	-3.1696	-1.4886	8.1848	18.3900 
93.950	0.1187	0.0049	1.2593	-3.0872	-1.8073	7.9980	18.4000 
93.950	0.1377	-0.0425	1.2954	-2.9608	-2.1753	7.8992	18.4000 
93.956	0.1650	-0.0605	1.3164	-2.7960	-2.5598	7.8992	18.3900 
93.975	0.2002	-0.0825	1.2124	-2.5928	-2.9828	8.0475	18.3900 
93.995	0.2363	-0.0806	1.0747	-2.4994	-3.2904	8.2782	18.3700 
94.016	0.2339	-0.1318	1.0044	-2.4664	-3.5101	8.5254	18.4000 
94.038	0.2168	-0.2578	1.0083	-2.6038	-3.6145	8.6682	18.3800 
94.139	0.1680	-0.2773	1.0771	-2.8015	-3.6090	8.6133	18.4000 
94.152	0.0918	-0.2539	1.1162	-2.9169	-3.5321	8.3936	18.3700 
94.152	0.0771	-0.2202	1.1162	-2.9773	-3.4277	8.1903	18.3800 
94.152	0.0967	-0.1519	1.0630	-3.0103	-3.2959	8.0914	18.3900 
94.152	0.1123	-0.1118	0.9819	-3.0103	-3.1586	8.1079	18.3800 
94.158	0.1470	-0.0923	0.8774	-2.9773	-3.0322	8.2288	18.3800 
94.175	0.1543	-0.0879	0.8799	-2.9663	-2.9169	8.3990	18.3600 
94.196	0.1538	-0.0962	0.8755	-2.9608	-2.8290	8.5419	18.3800 
94.217	0.1392	-0.1001	0.9043	-2.9443	-2.7521	8.6517	18.3700 
94.246	0.1221	-0.1133	0.9341	-2.9333	-2.6862	8.7506	18.3600 
94.346	0.1362	-0.1304	0.9512	-2.9498	-2.6147	8.8660	18.3900 
94.359	0.1445	-0.0840	0.9795	-2.9718	-2.5104	8.9868	18.3800 
94.359	0.1733	-0.0449	0.9697	-2.9663	-2.4280	9.1681	18.3800 
94.359	0.1807	-0.0425	0.9731	-2.9498	-2.3676	9.3878	18.3800 
94.359	0.1670	-0.0068	0.9985	-2.9004	-2.3016	9.5856	18.3900 
94.366	0.1563	-0.0112	0.9917	-2.8235	-2.2577	9.8218	18.3900 
94.380	0.1436	-0.0107	0.9927	-2.7686	-2.1973	10.0745	18.3900 
94.401	0.1460	-0.0083	0.9990	-2.7301	-2.1149	10.3601	18.4000 
94.504	0.1680	0.0020	1.0107	-2.7136	-2.0215	10.6732	18.4000 
94.516	0.1816	0.0044	1.0137	-2.7026	-1.9281	11.0248	18.3700 
94.516	0.1895	0.0342	1.0103	-2.6752	-1.8677	11.3873	18.3700 
94.516	0.1919	0.0439	1.0049	-2.6147	-1.8457	11.7828	18.3600 
94.516	0.1743	0.0503	1.0142	-2.5543	-1.8292	12.1783	18.3700 
94.522	0.1704	0.0605	1.0122	-2.5049	-1.8073	12.5684	18.3800 
94.539	0.1782	0.0718	0.9976	-2.4719	-1.7963	12.9858	18.3800 
94.563	0.1870	0.0620	1.0034	-2.4664	-1.7963	13.4473	18.3800 
94.583	0.1836	0.0371	1.0288	-2.4609	-1.8182	14.0076	18.3800 
94.592	0.1807	0.0371	1.0337	-2.4500	-1.8237	14.6338	18.3700 
94.612	0.1772	0.0464	1.0288	-2.4170	-1.8182	15.3149	18.3800 
94.737	0.1694	0.0322	1.0107	-2.3621	-1.8237	16.0565	18.4000 
94.744	0.1255	-0.0469	1.1450	-2.3621	-1.8018	16.8091	18.4000 
94.745	0.1377	0.0869	1.2925	-2.3676	-1.7578	17.4573	18.3800 
94.745	0.1533	0.0884	1.2368	-2.2906	-1.8237	18.2098	18.3700 
94.745	0.1338	0.0479	1.2681	-2.3016	-1.8732	18.9679	18.3800 
94.745	0.0430	-0.0708	1.1880	-2.4774	-1.8842	19.5831	18.3900 
94.751	-0.0361	-0.0767	1.1128	-2.7795	-1.7743	19.9677	18.3700 
94.773	-0.1001	-0.2402	0.9717	-3.1036	-1.6864	20.4016	18.3600 
94.794	-0.1357	-0.3042	1.0278	-3.4332	-1.6150	20.9454	18.3500 
94.815	-0.1147	-0.2285	1.0586	-3.6804	-1.5875	21.5607	18.3700 
94.841	-0.0615	-0.1479	1.0713	-3.8507	-1.5601	22.1814	18.3500 
94.948	0.0127	-0.1553	1.0332	-4.0649	-1.5546	22.8461	18.3600 
94.961	0.0376	-0.1118	1.0615	-4.3286	-1.5271	23.3514	18.3500 
94.961	0.0493	-0.1313	1.0278	-4.5868	-1.5381	23.7579	18.3600 
94.961	0.0391	-0.1313	0.9966	-4.8175	-1.5656	24.0875	18.3600 
94.961	0.0156	-0.1455	0.9946	-5.0153	-1.5656	24.3347	18.3700 
94.961	0.0146	-0.1470	0.9878	-5.1581	-1.5326	24.5105	18.3700 
94.968	0.0117	-0.1533	1.0215	-5.2350	-1.4502	24.6478	18.3400 
94.989	0.0098	-0.1216	1.0469	-5.2789	-1.3019	24.7137	18.3400 
95.013	0.0098	-0.0806	1.0234	-5.2679	-1.1041	24.6808	18.3600 
95.028	0.0000	-0.0776	0.9893	-5.2240	-0.8954	24.6094	18.3500 
95.049	-0.0254	-0.0859	0.9629	-5.1526	-0.6812	24.4720	18.3400 
95.169	-0.0239	-0.0957	0.9629	-5.0867	-0.4724	24.2853	18.3600 
95.176	-0.0195	-0.0962	0.9893	-5.0153	-0.2911	24.0161	18.3400 
95.176	-0.0332	-0.1030	0.9863	-4.9054	-0.1813	23.6810	18.3500 
95.176	-0.0615	-0.0889	0.9775	-4.7076	-0.1428	23.2690	18.3400 
95.176	-0.0669	-0.0708	0.9590	-4.4714	-0.1538	22.7911	18.3400 
95.176	-0.0483	-0.0713	0.9663	-4.2407	-0.1923	22.2583	18.3400 
95.187	-0.0190	-0.0806	0.9868	-4.0210	-0.2417	21.6925	18.3400 
95.207	0.0010	-0.0991	1.0317	-3.8123	-0.3076	21.1047	18.3600 
95.324	0.0181	-0.1401	1.1177	-3.6200	-0.3625	20.5334	18.3400 
95.331	0.0381	-0.1045	1.1855	-3.4497	-0.3790	19.9292	18.3400 
95.332	0.0859	-0.0298	1.1064	-3.2410	-0.4669	19.4678	18.3200 
95.332	0.1094	0.0112	1.0239	-2.9938	-0.6262	19.1382	18.3300 
95.332	0.1431	-0.0044	0.9575	-2.7795	-0.8624	18.9240	18.3300 
95.332	0.1519	-0.0283	0.9800	-2.6532	-1.1261	18.7207	18.3200 
95.347	0.1279	-0.0410	1.0044	-2.6367	-1.2964	18.4186	18.3300 
95.366	0.1240	-0.0200	0.9946	-2.6202	-1.3843	18.0011	18.3200 
95.386	0.1284	-0.0469	1.0498	-2.6752	-1.4117	17.5177	18.3300 
95.407	0.1401	-0.0483	1.0679	-2.7576	-1.4117	16.9739	18.3300 
95.431	0.1392	-0.0659	1.0410	-2.8839	-1.3403	16.3861	18.3200 
95.544	0.1089	-0.0713	1.0254	-3.0432	-1.2030	15.7489	18.3300 
95.558	0.1108	-0.0313	0.9819	-3.1421	-1.0931	15.1172	18.3200 
95.559	0.1182	-0.0288	0.9990	-3.2465	-1.0602	14.6173	18.3000 
95.559	0.1025	-0.0659	1.0303	-3.3728	-1.0492	14.1998	18.3200 
95.559	0.0918	-0.0869	1.0449	-3.5376	-1.0162	13.8098	18.3100 
95.559	0.1025	-0.0752	1.0571	-3.7134	-0.9723	13.4637	18.3100 
95.567	0.1108	-0.0684	1.0479	-3.8782	-0.9668	13.1891	18.3100 
95.584	0.1069	-0.0488	1.0176	-4.0210	-0.9943	12.9034	18.3100 
95.605	0.1143	-0.0479	1.0029	-4.1254	-1.0712	12.6508	18.2900 
95.626	0.1104	-0.0796	1.0029	-4.2242	-1.1755	12.4475	18.2900 
95.645	0.1060	-0.0776	1.0254	-4.3451	-1.2469	12.2223	18.2800 
95.763	0.1123	-0.0718	1.0376	-4.4879	-1.3019	12.0135	18.2800 
95.778	0.1270	-0.0796	1.0273	-4.6417	-1.3568	11.8542	18.2800 
95.778	0.1333	-0.0688	1.0400	-4.8120	-1.3898	11.7114	18.2800 
95.778	0.1211	-0.0571	1.0303	-4.9658	-1.4172	11.5906	18.2800 
95.778	0.1133	-0.0596	1.0220	-5.0977	-1.4502	11.5027	18.2700 
95.778	0.1138	-0.0566	1.0229	-5.2130	-1.4832	11.4368	18.2600 
95.800	0.1191	-0.0547	1.0381	-5.3119	-1.5161	11.3928	18.2700 
95.812	0.1299	-0.0576	1.0337	-5.3888	-1.5546	11.3763	18.2900 
95.834	0.1299	-0.0552	1.0400	-5.4437	-1.6040	11.3928	18.2800 
95.845	0.1245	-0.0503	1.0444	-5.4547	-1.6534	11.4368	18.2700 
95.863	0.1284	-0.0562	1.0435	-5.4657	-1.7084	11.4807	18.2900 
95.962	0.1201	-0.0552	1.0532	-5.4712	-1.7743	11.5192	18.2800 
95.973	0.1177	-0.0498	1.0493	-5.4712	-1.8292	11.5576	18.2700 
95.973	0.1201	-0.0376	1.0381	-5.4437	-1.8622	11.6071	18.2800 
95.973	0.1279	-0.0366	1.0249	-5.4108	-1.8842	11.6620	18.2700 
95.973	0.1235	-0.0386	1.0195	-5.3668	-1.9116	11.7114	18.2700 
95.982	0.1167	-0.0449	1.0156	-5.3284	-1.9501	11.7554	18.2500 
96.002	0.0938	-0.0464	1.0254	-5.2954	-1.9775	11.7883	18.2600 
96.022	0.1021	-0.0488	1.0269	-5.3009	-1.9995	11.8268	18.2600 
96.043	0.1094	-0.0522	1.0283	-5.3284	-1.9995	11.8872	18.2600 
96.065	0.1138	-0.0591	1.0244	-5.3723	-1.9940	11.9641	18.2800 
96.171	0.1123	-0.0591	1.0273	-5.4108	-1.9940	12.0575	18.2600 
96.183	0.1128	-0.0635	1.0210	-5.4382	-1.9940	12.1509	18.2700 
96.183	0.1172	-0.0664	1.0239	-5.4657	-1.9940	12.2388	18.2600 
96.183	0.1050	-0.0576	1.0366	-5.4932	-1.9720	12.3047	18.2700 
96.183	0.1006	-0.0620	1.0361	-5.5096	-1.9446	12.3706	18.2800 
96.189	0.1016	-0.0645	1.0352	-5.5261	-1.9061	12.4530	18.2700 
96.206	0.1040	-0.0630	1.0273	-5.5206	-1.8842	12.5409	18.2600 
96.230	0.1113	-0.0654	1.0215	-5.4932	-1.8787	12.6727	18.2600 
96.250	0.1084	-0.0630	1.0283	-5.4382	-1.8787	12.8485	18.2800 
96.261	0.1089	-0.0615	1.0322	-5.3723	-1.8732	13.0243	18.2800 
96.282	0.1079	-0.0601	1.0400	-5.3064	-1.8512	13.1781	18.2600 
96.383	0.1074	-0.0464	1.0371	-5.2350	-1.8237	13.3099	18.2600 
96.396	0.1152	-0.0327	1.0337	-5.1526	-1.7963	13.4253	18.2600 
96.396	0.1206	-0.0381	1.0264	-5.0757	-1.7853	13.5132	18.2800 
96.396	0.1123	-0.0283	1.0229	-4.9933	-1.7853	13.5571	18.2700 
96.396	0.0986	-0.0454	1.0210	-4.9219	-1.7798	13.5791	18.2800 
96.402	0.0840	-0.0581	1.0317	-4.8889	-1.7578	13.5626	18.2700 
96.424	0.0825	-0.0469	1.0327	-4.8615	-1.7303	13.5352	18.2700 
96.442	0.0986	-0.0498	1.0278	-4.8340	-1.7249	13.5242	18.2800 
96.467	0.1060	-0.0513	1.0303	-4.8065	-1.7194	13.5406	18.2800 
96.488	0.1021	-0.0396	1.0371	-4.7791	-1.7029	13.5626	18.2700 
96.596	0.1006	-0.0400	1.0371	-4.7516	-1.6699	13.5791	18.2600 
96.609	0.0972	-0.0366	1.0366	-4.7241	-1.6370	13.6066	18.2500 
96.610	0.0962	-0.0376	1.0317	-4.6967	-1.6150	13.6340	18.2600 
96.610	0.1025	-0.0371	1.0239	-4.6637	-1.5985	13.6560	18.2700 
96.610	0.0986	-0.0469	1.0259	-4.6362	-1.5820	13.6780	18.2800 
96.610	0.0903	-0.0469	1.0283	-4.6033	-1.5491	13.7054	18.2800 
96.630	0.0840	-0.0327	1.0386	-4.5593	-1.5216	13.7329	18.2700 
96.638	0.0884	-0.0264	1.0386	-4.5154	-1.5106	13.7714	18.2800 
96.757	0.0928	-0.0298	1.0303	-4.4659	-1.5161	13.8043	18.2900 
96.764	0.0962	-0.0352	1.0322	-4.4275	-1.5326	13.8428	18.2800 
96.764	0.0908	-0.0391	1.0313	-4.3945	-1.5326	13.8757	18.2700 
96.764	0.0898	-0.0381	1.0264	-4.3671	-1.5216	13.9197	18.2800 
96.764	0.0923	-0.0308	1.0239	-4.3231	-1.5216	13.9746	18.3000 
96.764	0.0986	-0.0220	1.0249	-4.2792	-1.5271	14.0460	18.2800 
96.777	0.1045	-0.0264	1.0269	-4.2517	-1.5436	14.1174	18.2800 
96.798	0.1064	-0.0415	1.0278	-4.2517	-1.5546	14.1669	18.2600 
96.819	0.0938	-0.0356	1.0391	-4.2627	-1.5491	14.1943	18.3000 
96.837	0.0972	-0.0371	1.0322	-4.2572	-1.5491	14.2493	18.2900 
96.863	0.0981	-0.0249	1.0356	-4.2462	-1.5601	14.3262	18.2800 
96.979	0.1084	-0.0239	1.0264	-4.2242	-1.5820	14.4250	18.2700 
96.993	0.1021	-0.0288	1.0322	-4.2023	-1.6040	14.5239	18.2900 
96.994	0.0981	-0.0396	1.0420	-4.1913	-1.6095	14.6118	18.2900 
96.994	0.0962	-0.0234	1.0474	-4.1858	-1.5930	14.6942	18.3000 
96.994	0.1079	-0.0244	1.0244	-4.1693	-1.6040	14.7821	18.2800 
96.994	0.1099	-0.0298	1.0156	-4.1473	-1.6260	14.8755	18.3000 
97.001	0.1069	-0.0264	1.0313	-4.1528	-1.6315	14.9579	18.2800 
97.016	0.1143	-0.0376	1.0249	-4.1638	-1.6425	15.0458	18.2900 
97.038	0.1128	-0.0342	1.0337	-4.1858	-1.6260	15.1117	18.3000 
97.058	0.1055	-0.0381	1.0356	-4.2078	-1.5985	15.1666	18.2900 
97.081	0.0972	-0.0400	1.0410	-4.2242	-1.5656	15.2106	18.2800 
97.193	0.0894	-0.0498	1.0356	-4.2297	-1.5381	15.2545	18.2900 
97.206	0.0938	-0.0479	1.0249	-4.2297	-1.5161	15.3094	18.3100 
97.206	0.0967	-0.0288	1.0288	-4.2188	-1.4996	15.3534	18.2900 
97.206	0.1050	-0.0249	1.0273	-4.2023	-1.4941	15.3973	18.3000 
97.206	0.1084	-0.0327	1.0298	-4.1858	-1.5051	15.4413	18.3000 
97.206	0.1050	-0.0391	1.0352	-4.1748	-1.5106	15.4852	18.3000 
97.215	0.0908	-0.0415	1.0376	-4.1693	-1.4941	15.5017	18.3100 
97.236	0.0894	-0.0366	1.0356	-4.1528	-1.4722	15.5127	18.3000 
97.254	0.0962	-0.0386	1.0347	-4.1364	-1.4667	15.5402	18.3000 
97.278	0.1030	-0.0293	1.0288	-4.1089	-1.4667	15.5786	18.3000 
97.299	0.1074	-0.0273	1.0229	-4.0814	-1.4832	15.6116	18.3100 
97.408	0.1064	-0.0449	1.0225	-4.0759	-1.4996	15.6281	18.3000 
97.422	0.0942	-0.0527	1.0303	-4.0869	-1.4941	15.6116	18.3100 
97.422	0.0879	-0.0449	1.0313	-4.0979	-1.4722	15.5786	18.3100 
97.422	0.0889	-0.0342	1.0449	-4.0869	-1.4557	15.5676	18.2900 
97.422	0.0972	-0.0381	1.0435	-4.0704	-1.4612	15.5896	18.3100 
97.423	0.1050	-0.0322	1.0356	-4.0594	-1.4722	15.6116	18.3100 
97.441	0.1021	-0.0220	1.0327	-4.0540	-1.4667	15.6226	18.3100 
97.456	0.1060	-0.0493	1.0205	-4.0649	-1.4667	15.6281	18.3100 
97.571	0.0952	-0.0449	1.0313	-4.0814	-1.4502	15.6171	18.3200 
97.583	0.0879	-0.0410	1.0361	-4.0924	-1.4392	15.6061	18.3200 
97.583	0.0923	-0.0498	1.0317	-4.0924	-1.4392	15.6116	18.3100 
97.583	0.0977	-0.0400	1.0308	-4.0869	-1.4392	15.6335	18.3100 
97.583	0.1025	-0.0332	1.0273	-4.0759	-1.4502	15.6555	18.3100 
97.583	0.0991	-0.0361	1.0317	-4.0649	-1.4557	15.6775	18.3000 
97.594	0.0938	-0.0454	1.0332	-4.0649	-1.4612	15.6885	18.3100 
97.614	0.0908	-0.0459	1.0313	-4.0649	-1.4612	15.7050	18.3300 
97.632	0.0923	-0.0444	1.0322	-4.0649	-1.4557	15.7104	18.3200 
97.652	0.0933	-0.0420	1.0298	-4.0649	-1.4502	15.7214	18.3200 
97.674	0.0967	-0.0381	1.0313	-4.0540	-1.4502	15.7269	18.3100 
97.783	0.0986	-0.0366	1.0317	-4.0485	-1.4502	15.7379	18.3100 
97.798	0.0977	-0.0347	1.0298	-4.0375	-1.4447	15.7544	18.3100 
97.799	0.0908	-0.0356	1.0396	-4.0210	-1.4447	15.7764	18.3100 
97.799	0.0933	-0.0425	1.0400	-4.0100	-1.4502	15.8093	18.3200 
97.799	0.0986	-0.0410	1.0322	-3.9935	-1.4667	15.8588	18.3200 
97.817	0.1001	-0.0303	1.0249	-3.9716	-1.4777	15.8972	18.3400 
97.823	0.0986	-0.0415	1.0298	-3.9606	-1.4941	15.9467	18.3300 
97.840	0.0962	-0.0513	1.0347	-3.9496	-1.5051	15.9741	18.3300 
97.862	0.0962	-0.0479	1.0366	-3.9386	-1.4996	16.0016	18.3400 
97.871	0.0947	-0.0317	1.0303	-3.9166	-1.4941	16.0236	18.3200 
97.891	0.0967	-0.0234	1.0283	-3.8782	-1.4996	16.0510	18.3300 
97.994	0.0972	-0.0249	1.0273	-3.8452	-1.5271	16.0840	18.3300 
98.006	0.0967	-0.0352	1.0313	-3.8232	-1.5656	16.1279	18.3300 
98.006	0.1021	-0.0435	1.0342	-3.8177	-1.5875	16.1719	18.3100 
98.006	0.0947	-0.0308	1.0366	-3.8013	-1.5930	16.2048	18.3200 
98.006	0.1050	-0.0342	1.0386	-3.7793	-1.6150	16.2488	18.3300 
98.012	0.1079	-0.0391	1.0327	-3.7628	-1.6370	16.2927	18.3300 
98.031	0.1079	-0.0356	1.0288	-3.7518	-1.6479	16.3257	18.3300 
98.051	0.1069	-0.0293	1.0303	-3.7354	-1.6534	16.3531	18.3200 
98.075	0.0996	-0.0342	1.0273	-3.7134	-1.6534	16.3696	18.3400 
98.097	0.0991	-0.0356	1.0298	-3.6859	-1.6534	16.3861	18.3400 
98.198	0.1006	-0.0391	1.0327	-3.6639	-1.6644	16.4136	18.3400 
98.209	0.1040	-0.0356	1.0303	-3.6420	-1.6699	16.4301	18.3400 
98.209	0.1064	-0.0376	1.0303	-3.6255	-1.6754	16.4355	18.3300 
98.209	0.1025	-0.0400	1.0317	-3.6035	-1.6754	16.4355	18.3400 
98.209	0.0938	-0.0396	1.0361	-3.5870	-1.6589	16.4301	18.3400 
98.224	0.0957	-0.0293	1.0352	-3.5596	-1.6479	16.4246	18.3300 
98.237	0.1040	-0.0254	1.0327	-3.5266	-1.6479	16.4246	18.3400 
98.249	0.1060	-0.0249	1.0342	-3.5046	-1.6534	16.4355	18.3300 
98.268	0.1074	-0.0298	1.0313	-3.4827	-1.6589	16.4520	18.3400 
98.289	0.1016	-0.0303	1.0347	-3.4552	-1.6534	16.4575	18.3400 
98.406	0.0967	-0.0337	1.0356	-3.4222	-1.6479	16.4630	18.3300 
98.412	0.1001	-0.0376	1.0361	-3.3893	-1.6479	16.4630	18.3400 
98.412	0.0986	-0.0229	1.0342	-3.3453	-1.6534	16.4630	18.3400 
98.412	0.1035	-0.0195	1.0249	-3.2959	-1.6589	16.4685	18.3500 
98.412	0.0986	-0.0181	1.0308	-3.2574	-1.6699	16.4630	18.3400 
98.412	0.0986	-0.0229	1.0303	-3.2190	-1.6754	16.4575	18.3500 
98.428	0.0981	-0.0298	1.0293	-3.1970	-1.6809	16.4520	18.3400 
98.447	0.0923	-0.0234	1.0322	-3.1805	-1.6809	16.4520	18.3400 
98.467	0.1006	-0.0244	1.0332	-3.1531	-1.6919	16.4685	18.3300 
98.487	0.1011	-0.0273	1.0337	-3.1311	-1.7029	16.5015	18.3400 
98.507	0.1094	-0.0225	1.0234	-3.1036	-1.7249	16.5399	18.3500 
98.621	0.1050	-0.0117	1.0327	-3.0817	-1.7358	16.5729	18.3600 
98.627	0.1016	-0.0195	1.0356	-3.0652	-1.7523	16.6058	18.3400 
98.627	0.1050	-0.0327	1.0308	-3.0707	-1.7633	16.6278	18.3400 
98.628	0.1001	-0.0259	1.0371	-3.0762	-1.7688	16.6333	18.3500 
98.628	0.1030	-0.0259	1.0273	-3.0762	-1.7688	16.6388	18.3400 
98.628	0.1011	-0.0239	1.0254	-3.0762	-1.7578	16.6388	18.3400 
98.656	0.1021	-0.0186	1.0298	-3.0762	-1.7523	16.6443	18.3500 
98.667	0.1050	-0.0264	1.0254	-3.0707	-1.7578	16.6388	18.3400 
98.782	0.1045	-0.0264	1.0313	-3.0762	-1.7578	16.6278	18.3500 
98.794	0.1001	-0.0327	1.0366	-3.0872	-1.7523	16.6168	18.3500 
98.794	0.0928	-0.0308	1.0366	-3.0981	-1.7358	16.6003	18.3400 
98.794	0.0952	-0.0283	1.0342	-3.0927	-1.7249	16.6003	18.3500 
98.794	0.0986	-0.0259	1.0269	-3.0872	-1.7249	16.6058	18.3500 
98.794	0.0996	-0.0249	1.0254	-3.0872	-1.7249	16.6113	18.3700 
98.815	0.1045	-0.0273	1.0239	-3.0927	-1.7249	16.6113	18.3600 
98.827	0.1011	-0.0264	1.0347	-3.1036	-1.7194	16.6003	18.3600 
98.845	0.0962	-0.0308	1.0386	-3.1091	-1.7084	16.6003	18.3500 
98.865	0.0933	-0.0283	1.0376	-3.1091	-1.6974	16.6113	18.3600 
98.884	0.0996	-0.0293	1.0278	-3.1091	-1.6974	16.6278	18.3500 
98.995	0.0986	-0.0229	1.0259	-3.1091	-1.6919	16.6443	18.3500 
99.012	0.1001	-0.0259	1.0244	-3.1091	-1.6919	16.6553	18.3600 
99.012	0.0957	-0.0273	1.0254	-3.1201	-1.6974	16.6498	18.3700 
99.012	0.0923	-0.0396	1.0273	-3.1311	-1.7029	16.6443	18.3700 
99.013	0.0894	-0.0439	1.0317	-3.1476	-1.7029	16.6388	18.3600 
99.031	0.0942	-0.0361	1.0391	-3.1531	-1.7029	16.6388	18.3700 
99.037	0.0991	-0.0288	1.0361	-3.1421	-1.7139	16.6553	18.3700 
99.050	0.1099	-0.0352	1.0288	-3.1201	-1.7413	16.6937	18.3700 
99.073	0.1050	-0.0259	1.0259	-3.0927	-1.7688	16.7157	18.3700