StartTime: 2018-11-17 10:34:18.293
Time(s)	ax(g)	ay(g)	az(g)	AngleX(deg)	AngleY(deg)	AngleZ(deg)	T(Â°) 
60.546	0.1357	0.1211	1.0264	4.4495	-2.8455	-4.9933	20.1400 
60.568	0.1431	0.1157	1.0259	4.4220	-2.8674	-4.8669	20.1400 
60.594	0.1328	0.1099	1.0210	4.3781	-2.8674	-4.7955	20.1300 
60.614	0.1191	0.1074	1.0181	4.3396	-2.8619	-4.7845	20.1300 
60.634	0.1113	0.0977	1.0269	4.2847	-2.8455	-4.8175	20.1400 
60.645	0.0991	0.0903	1.0259	4.2297	-2.8290	-4.8724	20.1500 
60.740	0.1099	0.1006	1.0254	4.1858	-2.8235	-4.9164	20.1500 
60.751	0.1274	0.1011	1.0303	4.1418	-2.8235	-4.9548	20.1400 
60.751	0.1299	0.0996	1.0332	4.0814	-2.8180	-5.0098	20.1400 
60.751	0.1201	0.0952	1.0278	4.0210	-2.8015	-5.1086	20.1600 
60.752	0.1079	0.0928	1.0210	3.9771	-2.7850	-5.2515	20.1500 
60.769	0.1001	0.0737	1.0195	3.9331	-2.7631	-5.4108	20.1500 
60.787	0.0928	0.0542	1.0317	3.8837	-2.7411	-5.5811	20.1600 
60.805	0.0835	0.0532	1.0313	3.8507	-2.7191	-5.7513	20.1500 
60.826	0.0825	0.0791	1.0225	3.8617	-2.7136	-5.9106	20.1500 
60.942	0.0996	0.1025	1.0156	3.8837	-2.7356	-6.0370	20.1600 
60.948	0.1084	0.1045	1.0249	3.8947	-2.7740	-6.1523	20.1600 
60.948	0.1104	0.1099	1.0239	3.8837	-2.8015	-6.2897	20.1600 
60.948	0.1045	0.1108	1.0259	3.8672	-2.8235	-6.4215	20.1500 
60.948	0.0967	0.1113	1.0356	3.8342	-2.8345	-6.5149	20.1500 
60.948	0.0923	0.1084	1.0356	3.7903	-2.8290	-6.5753	20.1400 
60.965	0.1055	0.1328	1.0239	3.7354	-2.8015	-6.5918	20.1500 
60.983	0.1025	0.1304	1.0083	3.6694	-2.7850	-6.5918	20.1600 
61.003	0.0942	0.1167	1.0161	3.5815	-2.7850	-6.6028	20.1600 
61.023	0.0942	0.1025	1.0322	3.4827	-2.7905	-6.6357	20.1600 
61.044	0.0879	0.0864	1.0361	3.3783	-2.7905	-6.6852	20.1400 
61.141	0.0767	0.0972	1.0283	3.3124	-2.7740	-6.7346	20.1500 
61.151	0.0796	0.1094	1.0205	3.2684	-2.7466	-6.7621	20.1600 
61.151	0.0786	0.1079	1.0352	3.2135	-2.6971	-6.7841	20.1700 
61.151	0.0845	0.1084	1.0396	3.1641	-2.6202	-6.8225	20.1500 
61.151	0.0908	0.1294	1.0317	3.1421	-2.5378	-6.8665	20.1500 
61.163	0.1016	0.1338	1.0313	3.1146	-2.4445	-6.9269	20.1600 
61.182	0.0884	0.1221	1.0278	3.0652	-2.3346	-7.0148	20.1500 
61.202	0.0610	0.1006	1.0303	3.0048	-2.1973	-7.1301	20.1700 
61.222	0.0557	0.0977	1.0239	2.9388	-2.0490	-7.2290	20.1500 
61.244	0.0591	0.1025	1.0161	2.8784	-1.8951	-7.2839	20.1500 
61.341	0.0674	0.1055	1.0195	2.8180	-1.7358	-7.3004	20.1400 
61.351	0.0815	0.0991	1.0254	2.7411	-1.5765	-7.3114	20.1700 
61.351	0.0791	0.0850	1.0298	2.6642	-1.4172	-7.3169	20.1600 
61.352	0.0728	0.0732	1.0205	2.6038	-1.2634	-7.3279	20.1600 
61.352	0.0698	0.0674	1.0151	2.5543	-1.1096	-7.3224	20.1700 
61.361	0.0742	0.0693	1.0029	2.5214	-0.9448	-7.2839	20.1600 
61.381	0.0962	0.0796	0.9927	2.4884	-0.7910	-7.1906	20.1700 
61.401	0.1255	0.1001	0.9800	2.4719	-0.6702	-7.0477	20.1600 
61.421	0.1421	0.1055	0.9888	2.4554	-0.5823	-6.9049	20.1600 
61.442	0.1558	0.0972	1.0371	2.4005	-0.5383	-6.8060	20.1500 
61.542	0.1553	0.0957	1.0635	2.3236	-0.5328	-6.7401	20.1700 
61.557	0.1357	0.0884	1.0703	2.2577	-0.5548	-6.7072	20.1700 
61.558	0.1187	0.0835	1.0742	2.2028	-0.5823	-6.6907	20.1600 
61.558	0.1143	0.0806	1.0840	2.1698	-0.6097	-6.6412	20.1700 
61.558	0.1157	0.1128	1.0835	2.2028	-0.6207	-6.5698	20.1500 
61.578	0.1221	0.1436	1.0483	2.2906	-0.6317	-6.4764	20.1600 
61.595	0.1377	0.1704	0.9692	2.3840	-0.6482	-6.3776	20.1800 
61.602	0.1470	0.1729	0.9429	2.4280	-0.6592	-6.3116	20.1600 
61.620	0.1538	0.1387	0.9561	2.4115	-0.6866	-6.3007	20.1600 
61.640	0.1631	0.1138	0.9785	2.3511	-0.7251	-6.3007	20.1900 
61.737	0.1606	0.1045	1.0078	2.2852	-0.7526	-6.3171	20.1700 
61.749	0.1523	0.1118	1.0088	2.2467	-0.7635	-6.3281	20.1700 
61.749	0.1519	0.1240	0.9976	2.2357	-0.7635	-6.3062	20.1800 
61.749	0.1504	0.1240	0.9980	2.2412	-0.7581	-6.2622	20.1800 
61.749	0.1362	0.1284	0.9966	2.2632	-0.7306	-6.1853	20.1800 
61.769	0.1289	0.1367	1.0049	2.3016	-0.6702	-6.0919	20.1700 
61.779	0.1387	0.1504	1.0273	2.3456	-0.5878	-5.9711	20.1700 
61.799	0.1392	0.1626	1.0234	2.3950	-0.4834	-5.8337	20.1800 
61.819	0.1304	0.1563	1.0166	2.4445	-0.3516	-5.7019	20.1700 
61.839	0.1201	0.1489	1.0283	2.4829	-0.2087	-5.5646	20.1700 
61.935	0.1250	0.1597	1.0200	2.5159	-0.0714	-5.4053	20.1700 
61.946	0.1328	0.1685	1.0107	2.5598	0.0439	-5.2350	20.1900 
61.946	0.1167	0.1738	1.0181	2.5983	0.1538	-5.0812	20.1800 
61.946	0.1064	0.1738	1.0269	2.6312	0.2637	-4.9384	20.1800 
61.946	0.1050	0.1729	1.0342	2.6642	0.3461	-4.7900	20.1800 
61.967	0.1128	0.1650	1.0488	2.6807	0.3955	-4.6143	20.2000 
61.980	0.1372	0.1689	1.0757	2.6862	0.4065	-4.4055	20.1700 
61.998	0.1436	0.1714	1.0845	2.6807	0.3900	-4.1693	20.2000 
62.018	0.1514	0.1719	1.0811	2.6752	0.3625	-3.8892	20.1900 
62.038	0.1602	0.1733	1.0659	2.6807	0.3131	-3.5486	20.1900 
62.149	0.1567	0.1523	1.0542	2.6807	0.2692	-3.1641	20.1700 
62.166	0.1377	0.1348	1.1069	2.6642	0.2527	-2.7795	20.2000 
62.166	0.1411	0.1406	1.1626	2.6312	0.2472	-2.3950	20.1800 
62.166	0.1616	0.1592	1.1128	2.6257	0.2692	-2.0270	20.1800 
62.166	0.1216	0.1094	1.0947	2.6202	0.2966	-1.7029	20.1700 
62.174	0.0781	0.0576	1.1001	2.6147	0.3021	-1.4117	20.1900 
62.185	0.0181	-0.0103	1.0757	2.6422	0.2802	-1.1096	20.2000 
62.209	-0.0298	-0.0176	1.0161	2.7411	0.2637	-0.8240	20.2100 
62.216	-0.0884	-0.0259	0.9111	2.9553	0.2142	-0.5438	20.1900 
62.236	-0.0933	-0.0581	0.9419	3.1146	0.1428	-0.3131	20.1900 
62.256	-0.0767	-0.0317	1.0317	3.1805	0.0110	-0.0824	20.2000 
62.354	-0.0571	-0.0029	1.0923	3.2300	-0.1263	0.1428	20.2000 
62.366	-0.0415	0.0039	1.1470	3.2300	-0.2527	0.2966	20.1900 
62.366	-0.0283	0.0098	1.1611	3.2190	-0.3735	0.3900	20.1900 
62.366	0.0195	0.0361	1.1201	3.2300	-0.5164	0.4285	20.1900 
62.366	0.0396	0.0571	1.0449	3.2355	-0.6921	0.4449	20.2200 
62.376	0.0444	0.0620	0.9238	3.2574	-0.9009	0.4395	20.2000 
62.395	0.0322	0.0581	0.8740	3.3179	-1.1261	0.4724	20.2000 
62.415	0.0068	0.0317	0.8696	3.3618	-1.3623	0.5493	20.2000 
62.435	0.0029	0.0317	0.8809	3.4113	-1.5875	0.6537	20.1900 
62.457	0.0459	0.0522	0.9312	3.4442	-1.7798	0.7526	20.1900 
62.555	0.0679	0.0723	0.9639	3.4552	-1.9446	0.8185	20.2000 
62.567	0.0894	0.0908	0.9893	3.4552	-2.0764	0.8569	20.1900 
62.567	0.0918	0.0977	1.0249	3.4277	-2.1753	0.8295	20.1700 
62.567	0.0737	0.1104	1.0361	3.3948	-2.2137	0.7141	20.1800 
62.567	0.0562	0.1138	1.0283	3.3563	-2.2192	0.5548	20.1900 
62.574	0.0610	0.1104	1.0156	3.3124	-2.2357	0.3900	20.1900 
62.595	0.0762	0.1182	0.9790	3.3069	-2.2906	0.2197	20.1600 
62.615	0.0767	0.1367	0.9648	3.3344	-2.3566	0.0330	20.1900 
62.634	0.0620	0.1436	0.9746	3.3838	-2.4170	-0.1923	20.1700 
62.655	0.0479	0.1528	0.9941	3.4442	-2.4335	-0.4779	20.1900 
62.753	0.0483	0.1616	1.0239	3.4607	-2.4390	-0.7965	20.1900 
62.766	0.0420	0.1655	1.0400	3.4552	-2.4335	-1.1426	20.1800 
62.766	0.0337	0.1572	1.0537	3.4607	-2.4280	-1.5216	20.1700 
62.766	0.0273	0.1592	1.0518	3.4772	-2.4280	-1.9116	20.1700 
62.766	0.0259	0.1787	1.0444	3.5101	-2.4115	-2.2687	20.1800 
62.773	0.0303	0.1929	1.0259	3.5760	-2.3950	-2.5928	20.1800 
62.793	0.0376	0.1729	1.0542	3.6255	-2.3950	-2.9004	20.1700 
62.814	0.0640	0.1533	1.1250	3.6090	-2.4115	-3.2300	20.1800 
62.834	0.1206	0.1514	1.1309	3.5541	-2.4939	-3.5651	20.1800 
62.854	0.1064	0.1206	1.1313	3.4991	-2.5763	-3.9276	20.1800 
62.953	0.1348	0.0659	1.1167	3.4167	-2.6587	-4.2957	20.1800 
62.965	0.1558	0.0225	1.0425	3.3728	-2.7850	-4.5978	20.1700 
62.965	0.1743	-0.0562	1.0317	3.3673	-2.9388	-4.8175	20.1700 
62.965	0.2119	-0.1064	1.0596	3.3508	-3.1201	-4.9768	20.1700 
62.965	0.2563	-0.1279	1.1855	3.2410	-3.2520	-5.1141	20.1900 
62.972	0.2783	-0.1060	1.1880	3.0981	-3.3398	-5.2405	20.1800 
62.992	0.2275	-0.0879	1.1704	2.9663	-3.3398	-5.3778	20.1700 
63.013	0.1714	-0.0649	1.1509	2.8729	-3.2574	-5.5371	20.1700 
63.032	0.1260	0.0010	1.0435	2.8180	-3.1366	-5.6799	20.1700 
63.053	0.1050	0.0298	0.9248	2.8510	-2.9883	-5.7733	20.1700 
63.156	0.0776	0.0298	0.8115	2.9443	-2.8400	-5.8228	20.1800 
63.167	0.0703	-0.0054	0.8257	2.9773	-2.7026	-5.8392	20.1700 
63.167	0.0742	-0.0195	0.8818	2.9608	-2.5818	-5.8173	20.1700 
63.167	0.0952	-0.0029	0.9136	2.9553	-2.4939	-5.7349	20.1800 
63.167	0.1436	0.0303	0.9419	2.9443	-2.4280	-5.6140	20.1700 
63.173	0.1582	0.0488	0.9575	2.8784	-2.3566	-5.4767	20.1700 
63.191	0.1699	0.0532	0.9678	2.7740	-2.2797	-5.3229	20.1800 
63.212	0.1709	0.0640	0.9863	2.6697	-2.2247	-5.1801	20.1800 
63.237	0.1792	0.1030	0.9990	2.5818	-2.1973	-5.0592	20.1700 
63.259	0.1875	0.1050	0.9980	2.4994	-2.2083	-4.9548	20.1800 
63.352	0.1782	0.0703	1.0049	2.3895	-2.2247	-4.8944	20.1700 
63.364	0.1602	0.0635	1.0181	2.2906	-2.2467	-4.8340	20.1800 
63.364	0.1543	0.0781	1.0024	2.2247	-2.2687	-4.7296	20.1800 
63.364	0.1548	0.1016	0.9893	2.2028	-2.2632	-4.5868	20.1800 
63.364	0.1704	0.1240	0.9795	2.2083	-2.2632	-4.3945	20.1600 
63.370	0.1831	0.1353	0.9795	2.2247	-2.2687	-4.1803	20.1900 
63.390	0.1919	0.1323	0.9917	2.2522	-2.2961	-3.9716	20.1700 
63.410	0.1880	0.1343	1.0088	2.2906	-2.3181	-3.7738	20.1800 
63.433	0.1929	0.1431	1.0156	2.3566	-2.3621	-3.5706	20.2000 
63.453	0.1919	0.1548	1.0542	2.4445	-2.4060	-3.3453	20.1600 
63.553	0.2021	0.1782	1.0649	2.5598	-2.4335	-3.0927	20.1700 
63.565	0.2202	0.2085	1.0498	2.6971	-2.4554	-2.8180	20.1900 
63.565	0.2319	0.2202	1.0425	2.8235	-2.4500	-2.5433	20.1800 
63.565	0.2222	0.2109	1.0137	2.9388	-2.4280	-2.2906	20.1900 
63.565	0.1855	0.1704	1.0361	3.0267	-2.3730	-2.0819	20.1700 
63.571	0.1206	0.1104	1.2012	3.0707	-2.2906	-1.8896	20.1700 
63.589	0.1382	0.1279	1.2476	3.1201	-2.2083	-1.6864	20.1800 
63.608	0.1387	0.1167	1.2104	3.2080	-2.1533	-1.4777	20.1700 
63.630	0.0967	0.0898	1.1865	3.2629	-2.0984	-1.3403	20.1700 
63.651	-0.0146	-0.0098	1.0854	3.1531	-1.9501	-1.3348	20.1500 
63.750	-0.0781	-0.0991	1.0596	2.9059	-1.7578	-1.4117	20.1700 
63.762	-0.1143	-0.2065	1.0845	2.6477	-1.6644	-1.4502	20.1800 
63.762	-0.1030	-0.1782	1.0972	2.4225	-1.6534	-1.3843	20.1900 
63.763	-0.0303	-0.1216	1.0996	2.1698	-1.6644	-1.1865	20.1700 
63.763	0.0049	-0.1079	1.0918	1.9226	-1.6809	-0.9119	20.1700 
63.770	0.0435	-0.0747	1.0659	1.7468	-1.6919	-0.6372	20.1600 
63.788	0.0635	-0.0454	1.0259	1.6095	-1.7194	-0.4065	20.1700 
63.807	0.0537	-0.0239	0.9746	1.4832	-1.7578	-0.2527	20.1800 
63.827	0.0308	-0.0073	0.9443	1.3733	-1.7743	-0.1868	20.1500 
63.848	0.0073	0.0088	0.9116	1.3293	-1.7963	-0.1978	20.1700 
63.942	0.0161	0.0049	0.9136	1.3019	-1.8292	-0.2307	20.1600 
63.953	0.0386	-0.0044	0.9268	1.2579	-1.8787	-0.2637	20.1700 
63.954	0.0425	-0.0034	0.9326	1.2195	-1.9171	-0.3076	20.1600 
63.954	0.0415	0.0054	0.9585	1.1810	-1.9501	-0.3845	20.1600 
63.954	0.0464	0.0166	0.9731	1.1591	-1.9940	-0.4669	20.1500 
63.978	0.0586	0.0347	0.9873	1.1646	-2.0215	-0.5603	20.1600 
63.998	0.0674	0.0645	0.9751	1.1975	-2.0325	-0.6757	20.1500 
64.006	0.0640	0.1016	0.9463	1.2469	-2.0215	-0.8130	20.1500 
64.026	0.0610	0.1084	0.9380	1.2799	-2.0270	-0.9888	20.1500 
64.047	0.0410	0.0947	0.9565	1.2634	-2.0380	-1.2030	20.1600 
64.067	0.0308	0.0933	0.9771	1.2140	-2.0599	-1.4612	20.1500 
64.088	0.0459	0.1172	0.9941	1.1591	-2.1094	-1.7084	20.1600 
64.197	0.0615	0.1284	1.0117	1.1041	-2.2028	-1.9501	20.1500 
64.204	0.0737	0.1201	1.0552	1.0657	-2.3126	-2.2083	20.1400 
64.204	0.0708	0.1108	1.0811	1.0547	-2.4280	-2.4884	20.1400 
64.204	0.0596	0.1265	1.0747	1.1261	-2.5488	-2.7411	20.1300 
64.204	0.0586	0.1440	1.0771	1.2415	-2.6697	-2.9388	20.1400 
64.210	0.0771	0.1582	1.0698	1.3623	-2.7795	-3.0762	20.1200 
64.231	0.0840	0.1729	1.0581	1.4941	-2.8619	-3.1750	20.1400 
64.251	0.1016	0.1567	1.1074	1.6260	-2.9114	-3.2684	20.1200 
64.275	0.1387	0.1484	1.1689	1.7084	-2.9773	-3.3948	20.1300 
64.284	0.1577	0.0986	1.1606	1.7908	-3.0872	-3.5321	20.1200 
64.401	0.1440	0.0391	1.1821	1.8622	-3.1805	-3.6694	20.1200 
64.408	0.1675	0.0195	1.1455	1.9666	-3.2739	-3.7518	20.1500 
64.408	0.2070	0.0215	1.0684	2.0764	-3.3563	-3.7463	20.1400 
64.408	0.2710	0.0103	0.9941	2.1478	-3.4003	-3.7628	20.1400 
64.408	0.2852	-0.0493	0.9951	2.1368	-3.4552	-3.8397	20.1200 
64.408	0.2437	-0.0981	1.0503	2.0105	-3.4662	-4.0594	20.1200 
64.434	0.1523	-0.1484	1.1450	1.8622	-3.4003	-4.4495	20.1100 
64.444	0.1172	-0.1636	1.1831	1.7303	-3.2959	-4.8999	20.1100 
64.464	0.1162	-0.0859	1.1411	1.6589	-3.2245	-5.2679	20.1200 
64.483	0.1338	-0.0225	1.0439	1.6919	-3.1421	-5.4767	20.1300 
64.504	0.1592	0.0220	0.9141	1.7743	-3.0322	-5.5811	20.1100 
64.606	0.1724	0.0322	0.8472	1.8677	-2.9279	-5.6415	20.1200 
64.619	0.1646	0.0435	0.8154	1.9556	-2.8180	-5.7294	20.1100 
64.619	0.1406	0.0190	0.8423	1.9885	-2.6917	-5.8777	20.1100 
64.619	0.1299	-0.0166	0.8926	1.9666	-2.5543	-6.0809	20.1100 
64.619	0.1318	-0.0156	0.9248	1.9116	-2.4170	-6.2842	20.1000 
64.625	0.1479	-0.0005	0.9658	1.8402	-2.3071	-6.4325	20.1000 
64.643	0.1563	0.0220	0.9893	1.7798	-2.2247	-6.5094	20.0900 
64.663	0.1807	0.0483	1.0122	1.7194	-2.1753	-6.5314	20.0900 
64.686	0.1875	0.0659	1.0073	1.6589	-2.1368	-6.5314	20.0900 
64.709	0.1777	0.0928	0.9814	1.6315	-2.0929	-6.5259	20.0900 
64.812	0.1626	0.0854	0.9712	1.6040	-2.0270	-6.5314	20.0900 
64.824	0.1499	0.0781	0.9780	1.5930	-1.9391	-6.5204	20.1000 
64.825	0.1563	0.0854	0.9897	1.5820	-1.8402	-6.4709	20.0800 
64.825	0.1787	0.1118	1.0078	1.5710	-1.7084	-6.4050	20.1100 
64.825	0.1841	0.1211	1.0239	1.5546	-1.5491	-6.3446	20.0900 
64.831	0.1807	0.1377	1.0181	1.5765	-1.3953	-6.2567	20.0900 
64.849	0.1694	0.1436	1.0229	1.6260	-1.2524	-6.1249	20.0800 
64.870	0.1572	0.1616	1.0566	1.6699	-1.0986	-5.9656	20.0700 
64.890	0.1616	0.1626	1.0708	1.6974	-0.9448	-5.7953	20.0800 
64.912	0.1675	0.1582	1.0693	1.7249	-0.8240	-5.6085	20.0900 
64.920	0.1553	0.1348	1.0596	1.7798	-0.7635	-5.4053	20.0800 
65.008	0.1060	0.0854	1.1113	1.8732	-0.7471	-5.1691	20.0900 
65.024	0.0889	0.0991	1.2349	2.0105	-0.7306	-4.9109	20.0900 
65.025	0.1265	0.1255	1.1636	2.2247	-0.7581	-4.5813	20.0800 
65.025	0.0771	0.0400	1.1631	2.4719	-0.8185	-4.1473	20.0800 
65.041	-0.0317	0.0176	1.1709	2.7466	-0.8954	-3.6969	20.0800 
65.047	-0.0654	0.0005	1.0884	2.9553	-0.9393	-3.3289	20.0700 
65.065	-0.0786	-0.0967	1.0425	3.0103	-0.9833	-3.0267	20.0800 
65.086	-0.1191	-0.1157	1.0864	3.0212	-1.0822	-2.7301	20.0700 
65.109	-0.0527	-0.0552	1.1987	2.9279	-1.1700	-2.4005	20.0900 
65.203	0.0386	-0.0054	1.1665	2.7411	-1.2305	-2.0050	20.0700 
65.216	0.0825	0.0215	1.0776	2.5983	-1.2799	-1.6479	20.0800 
65.216	0.0825	0.0215	1.0190	2.4829	-1.3513	-1.3788	20.0700 
65.216	0.0566	0.0254	0.9326	2.3291	-1.4282	-1.1865	20.0700 
65.216	0.0273	0.0327	0.8779	2.1973	-1.5051	-1.0437	20.0900 
65.222	0.0156	0.0278	0.8765	2.0874	-1.5820	-0.9229	20.0700 
65.239	0.0264	0.0229	0.9004	1.9775	-1.6534	-0.8130	20.0600 
65.259	0.0410	0.0386	0.9277	1.8622	-1.6864	-0.7635	20.0600 
65.283	0.0508	0.0366	0.9360	1.7578	-1.6919	-0.7581	20.0800 
65.305	0.0566	0.0400	0.9497	1.6699	-1.6974	-0.8185	20.0600 
65.402	0.0498	0.0493	0.9644	1.6040	-1.7029	-0.9229	20.0600 
65.414	0.0415	0.0620	0.9766	1.5820	-1.7303	-1.0382	20.0500 
65.414	0.0444	0.0757	0.9810	1.5930	-1.7743	-1.1536	20.0700 
65.414	0.0332	0.0840	0.9678	1.6644	-1.8237	-1.2744	20.0600 
65.414	0.0298	0.1123	0.9692	1.7688	-1.8842	-1.3843	20.0500 
65.421	0.0410	0.1279	0.9829	1.8567	-1.9666	-1.4832	20.0400 
65.437	0.0527	0.1436	0.9736	1.9061	-2.0490	-1.5875	20.0400 
65.461	0.0552	0.1426	0.9756	1.9391	-2.1259	-1.7139	20.0600 
65.481	0.0562	0.1270	1.0132	1.9666	-2.1918	-1.8677	20.0500 
65.502	0.0591	0.1250	1.0439	1.9885	-2.2412	-2.0215	20.0500 
65.602	0.0532	0.1392	1.0552	2.0380	-2.2742	-2.1368	20.0500 
65.615	0.0537	0.1440	1.0625	2.0764	-2.2852	-2.2247	20.0500 
65.615	0.0542	0.1470	1.0688	2.1149	-2.2906	-2.2742	20.0600 
65.615	0.0498	0.1558	1.0640	2.1753	-2.2906	-2.2961	20.0500 
65.615	0.0591	0.1631	1.0479	2.2687	-2.2906	-2.3016	20.0500 
65.621	0.0703	0.1592	1.0659	2.4005	-2.2906	-2.3346	20.0500 
65.636	0.1196	0.1436	1.1543	2.5543	-2.3346	-2.4225	20.0500 
65.660	0.1230	0.1147	1.1558	2.7521	-2.4170	-2.5269	20.0500 
65.682	0.1304	0.0562	1.2075	2.9224	-2.4939	-2.6202	20.0400 
65.702	0.1650	0.0122	1.1782	3.0817	-2.5818	-2.6367	20.0400 
65.819	0.2256	0.0088	1.0957	3.2355	-2.6752	-2.5653	20.0500 
65.836	0.2432	0.0146	1.0483	3.3838	-2.7686	-2.4554	20.0500 
65.836	0.2622	-0.0308	1.0610	3.3728	-2.7960	-2.4060	20.0400 
65.837	0.2183	-0.0518	1.1211	3.2629	-2.7631	-2.5049	20.0500 
65.837	0.1304	-0.0747	1.2012	3.1311	-2.6587	-2.7686	20.0500 
65.837	0.0918	-0.0454	1.1758	3.0432	-2.5269	-3.0652	20.0200 
65.853	0.0884	0.0239	1.0098	3.0322	-2.3785	-3.2794	20.0400 
65.860	0.1060	0.0444	0.9165	3.0652	-2.2412	-3.3728	20.0500 
65.876	0.1514	0.0439	0.8501	3.0817	-2.1094	-3.4003	20.0500 
65.898	0.1484	0.0371	0.8354	3.0872	-1.9940	-3.4387	20.0300 
65.920	0.1187	0.0376	0.8394	3.1091	-1.8787	-3.5376	20.0500 
66.018	0.1099	0.0356	0.8745	3.1036	-1.7578	-3.6749	20.0500 
66.031	0.1304	0.0332	0.9458	3.0157	-1.6205	-3.8123	20.0500 
66.031	0.1587	0.0332	0.9473	2.8400	-1.4941	-3.8837	20.0500 
66.031	0.1641	0.0278	0.9565	2.6477	-1.4117	-3.8727	20.0500 
66.031	0.1553	0.0454	0.9780	2.5214	-1.3843	-3.8123	20.0500 
66.038	0.1611	0.1016	0.9829	2.4445	-1.3788	-3.7518	20.0200 
66.054	0.1709	0.0991	0.9800	2.3511	-1.3678	-3.6804	20.0400 
66.074	0.1572	0.0869	0.9790	2.2632	-1.3568	-3.5980	20.0300 
66.095	0.1514	0.0767	0.9854	2.2137	-1.3458	-3.4772	20.0300 
66.118	0.1563	0.1045	0.9888	2.2192	-1.3403	-3.2904	20.0300 
66.218	0.1694	0.1294	1.0044	2.2797	-1.3458	-3.0432	20.0400 
66.233	0.1821	0.1592	1.0244	2.3840	-1.3513	-2.7795	20.0200 
66.233	0.2007	0.1743	1.0269	2.4939	-1.3403	-2.5214	20.0300 
66.233	0.2041	0.1602	1.0415	2.6093	-1.2799	-2.2687	20.0200 
66.233	0.1904	0.1445	1.0420	2.7136	-1.1865	-2.0325	20.0200 
66.242	0.1660	0.0996	1.0239	2.8235	-1.0822	-1.7908	20.0400 
66.258	0.1104	0.0518	1.0918	2.9608	-0.9888	-1.5271	20.0200 
66.276	0.0684	0.0913	1.2900	3.1641	-0.9009	-1.1975	20.0200 
66.300	0.1118	0.1772	1.1958	3.4937	-0.9064	-0.7581	20.0300 
66.322	0.1157	0.1309	1.1729	3.8342	-0.9833	-0.1813	20.0300 
66.420	0.0220	0.0566	1.2373	4.0265	-1.0052	0.3625	20.0400 
66.433	-0.0415	0.0342	1.1523	4.1309	-0.9558	0.7690	20.0200 
66.433	-0.1021	-0.0313	0.9932	4.1693	-0.8679	1.0327	20.0300 
66.433	-0.1646	-0.1479	1.0913	4.0759	-0.7526	1.2030	20.0300 
66.433	-0.0908	-0.1167	1.3057	3.8507	-0.7141	1.5546	20.0200 
66.439	0.0161	-0.0239	1.2607	3.6145	-0.7526	2.2083	20.0200 
66.454	0.1143	0.0737	1.0854	3.5156	-0.7471	2.8290	20.0200 
66.476	0.1284	0.1104	0.9678	3.5321	-0.7526	3.2465	20.0300 
66.499	0.0913	0.1055	0.8921	3.4937	-0.7800	3.4607	20.0300 
66.520	0.0420	0.0908	0.8398	3.3893	-0.7910	3.4772	20.0200 
66.621	-0.0112	0.0703	0.7930	3.3014	-0.8020	3.3783	20.0200 
66.634	-0.0034	0.0552	0.8013	3.2080	-0.8459	3.2300	20.0200 
66.635	0.0078	0.0591	0.8613	3.1201	-0.9283	3.1036	20.0000 
66.635	0.0142	0.0591	0.9009	3.0267	-0.9888	2.9553	20.0000 
66.635	0.0249	0.0698	0.9429	2.9279	-1.0162	2.7740	20.0100 
66.641	0.0366	0.0894	0.9570	2.8400	-1.0437	2.5763	20.0100 
66.655	0.0386	0.0977	0.9639	2.7795	-1.0767	2.3511	20.0200 
66.677	0.0234	0.0850	0.9829	2.7191	-1.1041	2.1039	19.9900 
66.699	0.0215	0.1279	0.9824	2.7191	-1.1426	1.9006	20.0000 
66.721	0.0513	0.1650	0.9663	2.7466	-1.2085	1.7523	20.0100 
66.818	0.0820	0.1919	0.9478	2.7521	-1.2579	1.5820	20.0000 
66.830	0.0879	0.1938	0.9302	2.7411	-1.2964	1.3678	20.0000 
66.830	0.0498	0.1641	0.9473	2.7246	-1.3348	1.1041	20.0000 
66.830	0.0322	0.1421	0.9800	2.7136	-1.4063	0.8130	19.9900 
66.830	0.0220	0.1353	1.0635	2.7081	-1.5051	0.5603	20.0000 
66.836	0.0220	0.1523	1.1040	2.7136	-1.6095	0.3900	20.0100 
66.854	0.0371	0.1855	1.1587	2.7411	-1.6974	0.3131	19.9900 
66.877	0.0684	0.1870	1.1777	2.7411	-1.7688	0.3241	19.9900 
66.899	0.1113	0.1938	1.1821	2.7081	-1.8182	0.3790	19.9800 
66.921	0.1289	0.1729	1.2300	2.6807	-1.8732	0.4175	19.9800 
67.018	0.1523	0.1572	1.2588	2.6807	-1.9775	0.4340	19.9900 
67.029	0.1514	0.1133	1.2671	2.7026	-2.1149	0.4449	19.9900 
67.029	0.1582	0.0493	1.2012	2.7356	-2.2742	0.4944	19.9900 
67.029	0.1763	0.0513	1.0986	2.8180	-2.4225	0.6207	19.9900 
67.029	0.1714	0.0371	0.9302	2.9114	-2.5104	0.7635	19.9900 
67.035	0.2007	-0.0420	0.9063	2.8345	-2.5159	0.8130	19.9600 
67.050	0.1997	-0.1729	1.0122	2.5873	-2.4884	0.7251	19.9700 
67.075	0.1318	-0.2041	1.1235	2.2906	-2.4060	0.4395	19.9800 
67.097	0.0728	-0.2036	1.2051	2.0435	-2.2906	0.0439	19.9600 
67.118	0.0732	-0.1802	1.2021	1.8567	-2.1918	-0.2472	19.9700 
67.219	0.0947	-0.0649	1.0845	1.8073	-2.0819	-0.3296	19.9700 
67.232	0.1313	0.0059	0.9775	1.8787	-1.9501	-0.2802	19.9700 
67.232	0.1782	0.0483	0.8413	2.0105	-1.8292	-0.1813	19.9600 
67.232	0.1592	0.0371	0.7969	2.1588	-1.7413	-0.1318	19.9700 
67.232	0.0767	-0.0225	0.8096	2.2247	-1.6699	-0.1868	19.9500 
67.238	0.0615	-0.0552	0.8413	2.2137	-1.5765	-0.2856	19.9600 
67.255	0.0757	-0.0459	0.8794	2.1753	-1.4777	-0.3406	19.9500 
67.276	0.1045	-0.0308	0.9141	2.1313	-1.3788	-0.3296	19.9600 
67.300	0.1299	-0.0034	0.9438	2.0984	-1.2854	-0.2637	19.9500 
67.307	0.1675	0.0381	0.9912	2.0874	-1.2195	-0.1483	19.9400 
67.421	0.1719	0.0469	1.0166	2.0764	-1.1865	-0.0055	19.9400 
67.430	0.1738	0.0669	1.0273	2.0874	-1.1591	0.1703	19.9500 
67.430	0.1758	0.0781	1.0381	2.1204	-1.1316	0.3900	19.9300 
67.430	0.1577	0.1050	1.0474	2.1808	-1.0767	0.6372	19.9300 
67.430	0.1587	0.1382	1.0288	2.3016	-1.0217	0.9229	19.9300 
67.430	0.1729	0.1597	1.0093	2.4225	-0.9668	1.2360	19.9300 
67.457	0.1743	0.1597	1.0215	2.5214	-0.9009	1.5710	19.9400 
67.477	0.1826	0.1865	1.0249	2.6312	-0.8295	1.9116	19.9400 
67.487	0.1895	0.2236	1.0200	2.7576	-0.7416	2.2192	19.9300 
67.506	0.2046	0.2432	1.0146	2.8345	-0.6317	2.4335	19.9300 
67.526	0.1914	0.2183	1.0205	2.8455	-0.4999	2.5159	19.9300 
67.619	0.1372	0.1699	1.0112	2.8674	-0.3735	2.5159	19.9300 
67.633	0.1138	0.1289	0.9849	2.9388	-0.2747	2.5323	19.9300 
67.633	0.0713	0.0376	1.0146	3.0872	-0.2362	2.6807	19.9400 
67.633	0.0562	0.0249	1.1665	3.2959	-0.2307	2.9663	19.9500 
67.639	0.1216	0.0801	1.2593	3.5706	-0.2472	3.3948	19.9400 
67.654	0.0977	0.0913	1.3022	3.8232	-0.1868	3.8123	19.9300 
67.675	-0.0161	0.1426	1.2671	3.9825	-0.0494	4.1254	19.9300 
67.686	-0.0737	0.1133	1.0801	4.0320	0.1593	4.3451	19.9400 
67.705	-0.1519	-0.0835	1.0063	3.9056	0.3955	4.4824	19.9500 
67.725	-0.2056	-0.1680	1.1206	3.6365	0.5328	4.6198	19.9300 
67.817	-0.0850	-0.0527	1.1753	3.3234	0.5273	4.9274	19.9300 
67.830	0.0181	0.0098	1.1123	3.0432	0.4724	5.3613	19.9300 
67.830	0.0557	0.0215	1.0645	2.8400	0.4010	5.7623	19.9300 
67.831	0.0586	0.0186	1.0122	2.6422	0.3186	6.0754	19.9300 
67.837	0.0249	0.0332	0.9023	2.4609	0.2527	6.2952	19.9100 
67.851	-0.0093	0.0259	0.8564	2.3126	0.1978	6.4215	19.9100 
67.874	-0.0317	0.0073	0.8633	2.2083	0.1428	6.5149	19.9200 
67.896	-0.0322	0.0322	0.8887	2.1588	0.0824	6.6193	19.9300 
67.903	-0.0015	0.0420	0.9204	2.1149	0.0439	6.7236	19.9200 
67.923	0.0073	0.0547	0.9253	2.0709	0.0439	6.8170	19.9000 
68.018	0.0342	0.1021	0.9443	2.0435	0.0824	6.8610	19.9100 
68.030	0.0425	0.1250	0.9346	2.0270	0.1318	6.8280	19.9100 
68.030	0.0264	0.1270	0.9336	1.9885	0.1868	6.7126	19.8900 
68.031	0.0078	0.1157	0.9409	1.9391	0.2362	6.5424	19.9000 
68.031	-0.0166	0.1045	0.9458	1.8512	0.3021	6.3007	19.9000 
68.052	-0.0117	0.1240	0.9541	1.7743	0.3625	6.0535	19.9100 
68.063	-0.0015	0.1602	0.9468	1.7194	0.3680	5.8228	19.9000 
68.083	0.0122	0.1548	0.9487	1.6699	0.3186	5.6030	19.9100 
68.102	0.0215	0.1621	0.9829	1.6095	0.2252	5.3778	19.9000 
68.122	0.0161	0.1714	1.0244	1.5546	0.0989	5.1471	19.9000 
68.215	0.0327	0.1777	1.0811	1.4886	-0.0549	4.9164	19.9000 
68.228	0.0366	0.1777	1.0986	1.4227	-0.2252	4.7021	19.8900 
68.228	0.0386	0.1782	1.1216	1.3733	-0.3955	4.5154	19.8900 
68.228	0.0376	0.1973	1.1138	1.3678	-0.5658	4.3616	19.9000 
68.235	0.0649	0.1948	1.1113	1.3733	-0.7251	4.2352	19.8900 
68.249	0.0732	0.1553	1.1450	1.3678	-0.8679	4.0759	19.8800 
68.273	0.1055	0.1138	1.2104	1.3568	-1.0217	3.8342	19.8900 
68.281	0.1509	0.0840	1.1553	1.5051	-1.2634	3.5760	19.8900 
68.300	0.1401	0.0464	1.1753	1.7798	-1.5106	3.2684	19.8900 
68.320	0.1724	-0.0264	1.1479	2.0599	-1.7798	2.9718	19.9000 
68.424	0.2090	-0.0703	1.1636	2.2961	-2.0215	2.7521	19.9000 
68.431	0.2568	-0.0933	1.1245	2.5214	-2.2742	2.6642	19.8900 
68.431	0.2725	-0.0952	1.1343	2.6532	-2.4390	2.5488	19.8900 
68.431	0.2061	-0.0908	1.2134	2.6038	-2.5049	2.3071	19.8700 
68.431	0.1304	-0.0566	1.2075	2.5653	-2.4884	1.9885	19.8900 
68.440	0.0654	-0.0015	1.0630	2.5928	-2.3840	1.6919	19.8800 
68.460	0.0654	-0.0010	0.9331	2.6038	-2.2137	1.5051	19.8800 
68.482	0.0811	-0.0142	0.8013	2.5818	-2.0270	1.4557	19.8800 
68.505	0.1006	-0.0132	0.7759	2.5433	-1.8512	1.5051	19.8700 
68.526	0.1118	-0.0083	0.8252	2.4994	-1.6699	1.5820	19.8900 
68.621	0.1094	0.0010	0.8691	2.4609	-1.4777	1.6315	19.8900 
68.634	0.1362	-0.0093	0.9175	2.3785	-1.3019	1.7139	19.8700 
68.634	0.1460	-0.0098	0.9443	2.2467	-1.1536	1.8347	19.8900 
68.634	0.1675	0.0332	0.9590	2.1259	-1.0327	1.9830	19.8700 
68.634	0.1797	0.0566	0.9648	2.0490	-0.9503	2.1423	19.8600 
68.640	0.1714	0.1118	0.9604	2.0435	-0.9009	2.2797	19.8800 
68.659	0.1650	0.1240	0.9595	2.0874	-0.8844	2.4115	19.8600 
68.679	0.1455	0.0967	0.9878	2.1094	-0.8624	2.5269	19.8800 
68.700	0.1338	0.0850	1.0078	2.1204	-0.8185	2.6422	19.8600 
68.720	0.1357	0.0869	1.0342	2.1588	-0.7471	2.8070	19.8700 
68.818	0.1426	0.1084	1.0410	2.2412	-0.6647	3.0542	19.8700 
68.831	0.1719	0.1582	1.0435	2.3785	-0.5823	3.3618	19.8800 
68.831	0.2017	0.1909	1.0244	2.5433	-0.5164	3.6969	19.8800 
68.831	0.2456	0.2124	1.0249	2.7081	-0.4559	4.0375	19.8600 
68.832	0.2646	0.2080	1.0527	2.8235	-0.3790	4.3176	19.8700 
68.838	0.2266	0.1548	1.0508	2.8839	-0.2527	4.4824	19.8700 
68.858	0.1294	0.1113	1.0527	2.9993	-0.0439	4.5319	19.8600 
68.878	-0.0293	0.0737	1.1992	3.2465	0.2032	4.5593	19.8500 
68.900	-0.0088	0.1646	1.2534	3.6310	0.4010	4.6802	19.8700 
68.921	0.0825	0.1807	1.2085	4.0210	0.4614	4.8999	19.8600 
68.942	0.0391	0.1592	1.2085	4.2133	0.5658	5.0262	19.8700 
68.966	-0.0737	0.0571	0.9897	4.1583	0.8350	4.9713	19.8600 
68.991	-0.1909	-0.1113	0.9673	3.9221	1.2030	4.8120	19.8600 
69.082	-0.3066	-0.2314	1.2163	3.6420	1.4832	4.6912	19.8600 
69.094	-0.1909	-0.1084	1.2803	3.3453	1.5491	4.8285	19.8500 
69.094	0.0161	0.0386	1.1885	3.0212	1.5051	5.2350	19.8700 
69.094	0.0591	0.0454	1.1348	2.7301	1.4502	5.5920	19.8700 
69.094	0.0747	0.0205	1.0581	2.4829	1.3293	5.7953	19.8700 
69.100	0.0542	0.0107	0.9868	2.2192	1.1591	5.9052	19.8600 
69.117	0.0142	0.0161	0.8569	1.9940	0.9778	5.9491	19.8400 
69.139	-0.0132	0.0151	0.7856	1.8073	0.7855	5.9711	19.8400 
69.159	-0.0190	0.0005	0.7827	1.6864	0.5658	6.0315	19.8400 
69.182	-0.0073	-0.0186	0.8462	1.5710	0.3406	6.1359	19.8300 
69.281	0.0063	-0.0293	0.9023	1.4117	0.1373	6.2732	19.8400 
69.293	0.0317	0.0093	0.9692	1.2689	-0.0055	6.4160	19.8500 
69.293	0.0576	0.0518	0.9922	1.1755	-0.1099	6.5369	19.8300 
69.293	0.0796	0.1001	0.9746	1.1316	-0.1483	6.5753	19.8200 
69.293	0.0552	0.1011	0.9717	1.1151	-0.1099	6.4874	19.8100 
69.299	0.0010	0.0996	0.9614	1.1371	-0.0439	6.3171	19.8200 
69.316	-0.0205	0.1025	0.9629	1.1755	0.0220	6.1084	19.8000 
69.339	-0.0088	0.1274	0.9824	1.2195	0.0604	5.9491	19.8000 
69.359	0.0127	0.1689	0.9951	1.2909	0.0714	5.8337	19.7900 
69.381	0.0527	0.2197	0.9922	1.3678	0.0494	5.7184	19.8200 
69.492	0.0518	0.2144	1.0078	1.4117	0.0275	5.5426	19.8200 
69.504	0.0186	0.1729	1.0337	1.4172	0.0165	5.3119	19.8200 
69.504	-0.0039	0.1563	1.0332	1.4392	0.0110	5.0757	19.8200 
69.504	-0.0015	0.1436	1.0249	1.4777	-0.0275	4.8779	19.8100 
69.504	-0.0068	0.1528	1.0107	1.5436	-0.0879	4.7076	19.8100 
69.504	0.0186	0.1587	1.0293	1.6095	-0.1428	4.5209	19.8000 
69.524	0.0552	0.1079	1.1191	1.6425	-0.2142	4.2682	19.8100 
69.534	0.1401	0.0688	1.2358	1.6974	-0.4285	3.9825	19.7900 
69.554	0.1509	0.0186	1.3022	1.8127	-0.6976	3.7134	19.8000 
69.573	0.2471	-0.0688	1.3188	1.9226	-1.0107	3.5046	19.8000 
69.595	0.2803	-0.0903	1.2920	2.0270	-1.3348	3.4113	19.8000 
69.694	0.2271	-0.0957	1.2139	2.0819	-1.5106	3.3453	19.8100 
69.707	0.1812	-0.1382	1.1929	1.9830	-1.5271	3.2135	19.7900 
69.707	0.0640	-0.1323	1.1870	1.8347	-1.4722	3.0212	19.7800 
69.707	0.0352	-0.0684	1.1108	1.7743	-1.3843	2.7850	19.7700 
69.707	0.0718	-0.0186	0.9365	1.7578	-1.3019	2.5928	19.7500 
69.713	0.0845	-0.0337	0.8584	1.7029	-1.2250	2.4554	19.7600 
69.733	0.0894	-0.0576	0.8130	1.6205	-1.1371	2.3676	19.7700 
69.753	0.1050	-0.0605	0.8193	1.5656	-1.0382	2.3291	19.7800 
69.773	0.1240	-0.0371	0.8389	1.5436	-0.9448	2.3126	19.7600 
69.794	0.1235	-0.0308	0.8828	1.5381	-0.8459	2.2852	19.7600 
69.891	0.1313	-0.0181	0.9419	1.4941	-0.7306	2.2467	19.7700 
69.904	0.1304	-0.0078	0.9517	1.4117	-0.5548	2.1698	19.7500 
69.905	0.1382	0.0073	0.9463	1.3074	-0.3735	2.1259	19.7500 
69.905	0.1426	0.0239	0.9482	1.2360	-0.2582	2.1478	19.7500 
69.905	0.1519	0.0537	1.0088	1.1810	-0.2087	2.2192	19.7400 
69.911	0.1538	0.0630	1.0337	1.1261	-0.1813	2.2742	19.7500 
69.931	0.1406	0.0566	1.0361	1.0931	-0.1263	2.3016	19.7300 
69.951	0.1284	0.0615	1.0195	1.1096	-0.0549	2.3346	19.7400 
69.971	0.1182	0.0703	1.0015	1.1755	0.0055	2.4225	19.7300 
69.992	0.1133	0.0781	1.0005	1.2744	0.0659	2.5763	19.7400 
70.089	0.1250	0.1094	1.0176	1.4008	0.1263	2.7795	19.7400 
70.101	0.1309	0.1279	1.0244	1.5491	0.2032	3.0048	19.7400 
70.102	0.1475	0.1704	1.0259	1.7194	0.3076	3.2135	19.7300 
70.102	0.1675	0.1982	1.0142	1.8732	0.4285	3.3893	19.7300 
70.102	0.1611	0.1558	0.9946	1.9666	0.5768	3.4717	19.7300 
70.111	0.1084	0.0908	0.9937	2.0654	0.7196	3.4991	19.7200 
70.131	0.0435	0.0088	1.0459	2.2247	0.8350	3.5651	19.7300 
70.150	-0.0239	-0.0049	1.2397	2.5049	0.9009	3.7299	19.7300 
70.171	0.0151	0.0820	1.2461	2.9883	0.8899	4.1309	19.7300 
70.192	0.0435	0.1577	1.2944	3.4167	0.8789	4.5868	19.7300 
70.289	0.0249	0.1738	1.2168	3.6530	0.9668	4.9384	19.7300 
70.301	-0.0620	0.0923	1.0767	3.7024	1.1865	5.1031	19.7300 
70.301	-0.1230	-0.0371	1.0571	3.5486	1.4008	5.1801	19.7200 
70.301	-0.1958	-0.1113	1.2007	3.3179	1.5326	5.3009	19.7300 
70.302	-0.1167	-0.0278	1.1826	3.0762	1.5546	5.6085	19.7300 
70.309	0.0112	0.0283	1.0962	2.8345	1.5601	5.9930	19.7200 
70.330	0.0234	0.0356	1.0376	2.6587	1.5326	6.3446	19.7200 
70.349	0.0259	0.0479	0.9434	2.4939	1.4612	6.6412	19.7400 
70.369	0.0273	0.0532	0.8755	2.3236	1.3733	6.8829	19.7400 
70.390	0.0122	0.0454	0.8154	2.1588	1.2634	7.0532	19.7300 
70.491	0.0015	0.0469	0.8428	2.0050	1.1536	7.1356	19.7200 
70.503	-0.0039	0.0547	0.8896	1.8402	1.0767	7.0917	19.7200 
70.503	-0.0146	0.0483	0.9189	1.6644	1.0327	6.9818	19.7400 
70.503	-0.0210	0.0479	0.9443	1.5051	1.0107	6.8500	19.7300 
70.503	-0.0107	0.0532	0.9575	1.3513	1.0107	6.7126	19.7300 
70.509	-0.0122	0.0537	0.9512	1.2140	1.0437	6.5533	19.7200 
70.535	-0.0156	0.0762	0.9570	1.1151	1.0602	6.4105	19.7300 
70.556	-0.0088	0.0977	0.9707	1.0547	1.0272	6.3062	19.7300 
70.578	-0.0010	0.0913	0.9878	0.9668	0.9778	6.2183	19.7200 
70.598	0.0000	0.1021	1.0088	0.8734	0.9668	6.1139	19.7200 
70.690	0.0020	0.1069	1.0054	0.7855	0.9668	6.0095	19.7100 
70.705	0.0151	0.1206	1.0029	0.7361	0.9393	5.9326	19.7300 
70.706	0.0288	0.1260	1.0142	0.7471	0.8569	5.8997	19.7100 
70.706	0.0332	0.1338	1.0674	0.7745	0.7471	5.8667	19.7100 
70.706	0.0337	0.1543	1.0908	0.8295	0.6537	5.8282	19.7100 
70.725	0.0229	0.1758	1.1108	0.9174	0.5878	5.7953	19.7200 
70.732	0.0181	0.1787	1.0938	1.0217	0.5548	5.7623	19.7100 
70.758	-0.0034	0.1660	1.0630	1.1151	0.5768	5.6964	19.7000 
70.767	0.0039	0.1362	1.0908	1.1920	0.6097	5.5756	19.6900 
70.786	0.0620	0.1177	1.1943	1.2634	0.5713	5.4437	19.6900 
70.885	0.0801	0.0850	1.1938	1.3953	0.4449	5.3119	19.7000 
70.891	0.1094	0.0186	1.2280	1.5436	0.3241	5.1416	19.7100 
70.891	0.1309	-0.0459	1.2256	1.7139	0.1758	5.0098	19.7000 
70.891	0.1479	-0.0464	1.0757	1.9446	0.0330	5.0043	19.7000 
70.891	0.1377	-0.0386	1.0239	2.1588	-0.0275	5.0427	19.7100 
70.905	0.1519	-0.0933	1.0381	2.2083	-0.0275	5.0317	19.6800 
70.927	0.1152	-0.1025	1.1187	2.1643	-0.0165	4.9438	19.7000 
70.946	0.0571	-0.0596	1.1504	2.1149	0.0275	4.7461	19.7000 
70.965	0.0537	-0.0347	1.1104	2.0709	0.1154	4.5374	19.7000 
70.986	0.0640	-0.0303	1.0195	2.0215	0.2197	4.4055	19.6800 
71.082	0.0703	-0.0161	0.9673	1.9885	0.3186	4.3671	19.6900 
71.092	0.0942	0.0083	0.9150	1.9830	0.4175	4.3945	19.6800 
71.092	0.1064	0.0342	0.8696	1.9995	0.4999	4.4385	19.7000 
71.093	0.0947	0.0532	0.8423	2.0490	0.5548	4.4604	19.6800 
71.093	0.0830	0.0342	0.8696	2.0544	0.5988	4.4440	19.6800 
71.114	0.0840	0.0298	0.8926	2.0105	0.6372	4.4165	19.6800 
71.125	0.0879	0.0405	0.9160	1.9336	0.6757	4.4110	19.6800 
71.145	0.0928	0.0410	0.9302	1.8292	0.7086	4.4330	19.6700 
71.164	0.1030	0.0625	0.9741	1.7413	0.7086	4.5044	19.6700 
71.184	0.1108	0.0698	1.0073	1.6534	0.6757	4.6088	19.6700 
71.276	0.1260	0.0732	1.0200	1.5436	0.6427	4.7516	19.6700 
71.288	0.1226	0.0605	1.0254	1.4282	0.6207	4.9274	19.6600 
71.288	0.1245	0.0498	1.0283	1.3348	0.6042	5.1581	19.6700 
71.288	0.1221	0.0542	1.0269	1.3019	0.5823	5.4327	19.6600 
71.294	0.1221	0.0913	1.0542	1.3348	0.5603	5.7404	19.6700 
71.313	0.1440	0.1216	1.0640	1.4063	0.5219	6.0535	19.6700 
71.332	0.1675	0.1709	1.0449	1.5051	0.4834	6.3556	19.6700 
71.354	0.1782	0.1753	1.0186	1.5930	0.4559	6.5973	19.6500 
71.364	0.1440	0.1172	1.0430	1.6534	0.4614	6.7511	19.6500 
71.473	0.0947	0.0425	1.1548	1.6919	0.4779	6.8610	19.6500 
71.486	0.0679	0.0562	1.3032	1.7688	0.4999	6.9653	19.6500 
71.486	0.0596	0.0781	1.2847	1.9281	0.5438	7.0972	19.6400 
71.486	0.0200	0.1099	1.1968	2.0984	0.6262	7.1851	19.6600 
71.486	-0.0239	0.0879	1.0977	2.2357	0.7196	7.2180	19.6700 
71.492	-0.0781	-0.0562	0.9561	2.2302	0.7965	7.2015	19.6300 
71.507	-0.1489	-0.1577	1.0210	2.1368	0.8130	7.2015	19.6500 
71.529	-0.1484	-0.1069	1.1147	2.0435	0.7581	7.3169	19.6500 
71.551	-0.0576	-0.0156	1.1309	1.9501	0.6976	7.6355	19.6600 
71.573	0.0352	0.0337	1.1201	1.8567	0.6702	8.0090	19.6600 
71.676	0.0591	0.0571	1.0830	1.7798	0.6317	8.3112	19.6600 
71.689	0.0649	0.0698	0.9707	1.6919	0.5933	8.4650	19.6600 
71.689	0.0337	0.0635	0.9043	1.5765	0.5383	8.4869	19.6500 
71.689	-0.0220	0.0542	0.8354	1.4941	0.4504	8.4210	19.6500 
71.689	-0.0273	0.0537	0.8418	1.4447	0.3296	8.3606	19.6700 
71.689	-0.0161	0.0605	0.8760	1.3843	0.2087	8.2892	19.6400 
71.712	0.0015	0.0688	0.8940	1.2909	0.1208	8.1958	19.6400 
71.732	0.0181	0.0586	0.9189	1.1646	0.0439	8.0804	19.6400 
71.741	0.0293	0.0654	0.9561	1.0437	-0.0494	7.9541	19.6400 
71.763	0.0269	0.0762	0.9902	0.9613	-0.1538	7.8003	19.6400 
71.781	0.0195	0.0894	1.0088	0.9174	-0.2362	7.6135	19.6300 
71.876	0.0200	0.1069	0.9917	0.8954	-0.2802	7.4213	19.6300 
71.887	0.0210	0.1147	0.9658	0.9009	-0.3076	7.2400	19.6300 
71.888	0.0161	0.1230	0.9443	0.9283	-0.3571	7.0697	19.6400 
71.888	0.0161	0.1313	0.9448	0.9888	-0.4230	6.8939	19.6200 
71.888	0.0117	0.1440	0.9990	1.0492	-0.5164	6.6797	19.6300 
71.909	0.0225	0.1528	1.0488	1.0822	-0.6317	6.4215	19.6300 
71.920	0.0332	0.1538	1.0957	1.1151	-0.7745	6.1633	19.6200 
71.940	0.0195	0.1475	1.1094	1.1920	-0.9119	5.9216	19.6300 
71.961	0.0156	0.1489	1.1152	1.3019	-1.0382	5.7019	19.6200 
71.981	0.0376	0.1582	1.1079	1.4227	-1.1426	5.4932	19.6200 
72.075	0.0684	0.1460	1.1455	1.5381	-1.2469	5.2625	19.6300 
72.087	0.1382	0.1440	1.2202	1.6919	-1.4063	4.9823	19.6200 
72.088	0.1313	0.1133	1.2363	1.9446	-1.6040	4.6802	19.6300 
72.088	0.1699	0.0098	1.3193	2.1588	-1.7798	4.3506	19.6100 
72.088	0.2349	0.0068	1.2944	2.3236	-1.9720	4.0869	19.6000 
72.108	0.2671	0.0239	1.0908	2.5049	-2.1478	3.9056	19.6100 
72.131	0.2681	-0.0015	0.9956	2.5928	-2.2577	3.6749	19.6100 
72.138	0.2295	-0.1406	1.0420	2.4280	-2.3181	3.4442	19.6000 
72.158	0.1313	-0.1450	1.1396	2.1973	-2.2687	3.0267	19.6200 
72.178	0.0503	-0.0488	1.1118	2.1313	-2.1753	2.5214	19.6100 
72.276	0.0645	0.0005	1.0249	2.1039	-2.0380	2.1094	19.5900 
72.288	0.1040	-0.0117	0.8779	2.0325	-1.8732	1.8292	19.6100 
72.288	0.1060	-0.0361	0.8311	1.9006	-1.7029	1.6370	19.5900 
72.288	0.1084	-0.0439	0.8569	1.7468	-1.5051	1.4996	19.5800 
72.288	0.1089	-0.0352	0.8755	1.6040	-1.3129	1.4008	19.5800 
72.298	0.1040	-0.0195	0.9087	1.4447	-1.1151	1.3403	19.5900 
72.317	0.1343	-0.0078	0.9233	1.2689	-0.9229	1.3184	19.5800 
72.337	0.1543	-0.0239	0.9521	1.0437	-0.7581	1.3348	19.5800 
72.357	0.1563	-0.0190	0.9795	0.8075	-0.5933	1.3348	19.5700 
72.378	0.1543	0.0195	0.9771	0.6427	-0.4889	1.3458	19.5600 
72.473	0.1528	0.0547	0.9575	0.5823	-0.4285	1.3513	19.5700 
72.485	0.1455	0.0796	0.9668	0.5878	-0.4120	1.3403	19.5800 
72.485	0.1426	0.0703	0.9902	0.5823	-0.3900	1.3074	19.5700 
72.486	0.1357	0.0713	1.0054	0.5823	-0.3461	1.2964	19.5500 
72.486	0.1372	0.0713	1.0073	0.6152	-0.2856	1.3403	19.5500 
72.508	0.1416	0.1021	1.0142	0.6921	-0.2362	1.4612	19.5500 
72.517	0.1489	0.1377	1.0186	0.8130	-0.2032	1.6479	19.5700 
72.536	0.1782	0.1606	1.0303	0.9503	-0.1868	1.8787	19.5500 
72.556	0.1855	0.1816	1.0459	1.0437	-0.1483	2.0874	19.5500 
72.577	0.1919	0.1743	1.0562	1.0876	-0.0714	2.2412	19.5400 
72.606	0.1597	0.1357	1.0728	1.1041	0.0330	2.3291	19.5400 
72.621	0.1016	0.0991	1.0786	1.1810	0.1538	2.4005	19.5400 
72.734	0.0718	0.0708	1.1074	1.3403	0.2911	2.5159	19.5400 
72.740	0.0479	0.0542	1.2241	1.5491	0.4395	2.7081	19.5500 
72.740	0.0786	0.1045	1.2632	1.7853	0.5438	3.0048	19.5500 
72.740	0.0928	0.1118	1.1899	2.0709	0.5933	3.4003	19.5400 
72.740	0.0166	0.0854	1.1045	2.3016	0.6647	3.7628	19.5300 
72.740	-0.0869	-0.0088	1.0415	2.3566	0.8020	4.0100	19.5300 
72.756	-0.1138	-0.1226	1.0938	2.2357	0.9174	4.2242	19.5300 
72.775	-0.1294	-0.1226	1.1855	2.0819	0.9009	4.4934	19.5400 
72.795	-0.0737	-0.0405	1.1567	1.9556	0.8020	4.8285	19.5200 
72.815	0.0259	-0.0068	1.0952	1.8347	0.7031	5.2350	19.5300 
72.835	0.0503	-0.0122	1.0527	1.7194	0.5603	5.6635	19.5200 
72.932	0.0625	0.0166	0.9639	1.6425	0.3625	6.0590	19.5200 
72.944	0.0679	0.0249	0.8921	1.5765	0.1318	6.4105	19.5300 
72.944	0.0493	0.0498	0.8613	1.4996	-0.0934	6.6632	19.5200 
72.944	0.0488	0.0605	0.8687	1.4282	-0.3021	6.8500	19.5000 
72.945	0.0493	0.0723	0.8740	1.3788	-0.4889	6.9928	19.5100 
72.954	0.0576	0.0811	0.8799	1.3129	-0.6262	7.0862	19.5200 
72.975	0.0664	0.0840	0.8950	1.1975	-0.7031	7.0917	19.5200 
72.994	0.0771	0.0684	0.9209	1.0382	-0.7526	7.0258	19.5000 
73.013	0.0718	0.0625	0.9390	0.8899	-0.8075	6.9049	19.5000 
73.035	0.0508	0.0708	0.9771	0.7855	-0.8679	6.7456	19.4900 
73.132	0.0430	0.0659	1.0005	0.6976	-0.8954	6.5479	19.4900 
73.145	0.0239	0.0645	0.9971	0.6372	-0.8569	6.3336	19.5000 
73.145	0.0171	0.0835	0.9883	0.6427	-0.7910	6.1523	19.5100 
73.145	0.0259	0.1201	0.9883	0.6866	-0.7361	6.0150	19.5000 
73.146	0.0347	0.1416	1.0259	0.7471	-0.6866	5.8722	19.4900 
73.153	0.0454	0.1641	1.0605	0.8185	-0.6592	5.7294	19.5200 
73.172	0.0356	0.1714	1.0513	0.9338	-0.6647	5.6250	19.4900 
73.193	0.0181	0.1265	1.0557	1.0327	-0.6812	5.5975	19.5000 
73.214	-0.0054	0.1050	1.0630	1.1096	-0.6921	5.6415	19.5100 
73.233	0.0029	0.1577	1.0352	1.2360	-0.6866	5.7513	19.4800 
73.336	0.0454	0.1831	1.0747	1.3184	-0.6482	5.8008	19.4900 
73.349	0.1523	0.1924	1.1855	1.3458	-0.7086	5.7074	19.5000 
73.349	0.1792	0.1396	1.1743	1.4557	-0.9119	5.5756	19.5100 
73.349	0.1958	-0.0127	1.1787	1.5710	-1.1591	5.3668	19.5000 
73.349	0.2173	-0.1284	1.2051	1.7029	-1.4392	5.2295	19.4900 
73.355	0.2080	-0.2085	1.2280	1.8018	-1.6754	5.2679	19.5000 
73.373	0.1816	-0.1685	1.2583	1.7853	-1.7249	5.2460	19.5000 
73.399	0.1636	-0.1299	1.2432	1.6589	-1.6644	5.1581	19.4800 
73.417	0.1108	-0.0947	1.2285	1.6205	-1.5820	5.0372	19.4800 
73.438	0.0571	0.0029	1.0898	1.7139	-1.4502	4.8560	19.4800 
73.558	0.0581	0.0283	0.9360	1.8402	-1.3129	4.6472	19.4800 
73.564	0.0586	0.0024	0.8018	1.8951	-1.1591	4.4110	19.4900 
73.564	0.0640	-0.0166	0.7920	1.8732	-1.0272	4.1638	19.4900 
73.564	0.0796	-0.0479	0.8203	1.8347	-0.9448	3.9441	19.4800 
73.564	0.0845	-0.0376	0.8521	1.8127	-0.8899	3.7463	19.4700 
73.564	0.1084	-0.0269	0.8896	1.8018	-0.8569	3.5815	19.4800 
73.570	0.1353	-0.0171	0.9185	1.7688	-0.8405	3.4882	19.4700 
73.595	0.1475	0.0073	0.9478	1.7413	-0.8295	3.4717	19.4800 
73.613	0.1475	0.0327	0.9780	1.7139	-0.8130	3.4882	19.4700 
73.637	0.1592	0.0820	1.0054	1.6974	-0.7965	3.5211	19.4800 
73.656	0.1602	0.0938	1.0234	1.6974	-0.7855	3.5651	19.4900 
73.749	0.1533	0.0732	1.0400	1.6809	-0.7471	3.5760	19.4800 
73.761	0.1445	0.0605	1.0479	1.6589	-0.6976	3.5980	19.4800 
73.762	0.1387	0.0635	1.0391	1.6589	-0.6317	3.6475	19.4800 
73.762	0.1343	0.0825	1.0264	1.7139	-0.5658	3.7408	19.4600 
73.762	0.1416	0.1162	1.0122	1.8237	-0.5109	3.9111	19.4600 
73.770	0.1553	0.1455	1.0171	1.9666	-0.4669	4.1638	19.4600 
73.790	0.1650	0.1689	1.0068	2.1259	-0.4120	4.4495	19.4800 
73.809	0.1895	0.1704	1.0146	2.2522	-0.3406	4.7131	19.4600 
73.830	0.1821	0.1465	1.0093	2.3346	-0.2527	4.9054	19.4600 
73.849	0.1436	0.1050	0.9897	2.4225	-0.1593	5.0317	19.4600 
73.950	0.0703	0.0361	1.0435	2.5323	-0.0494	5.1251	19.4600 
73.962	0.0073	0.0635	1.2217	2.7356	0.0165	5.2460	19.4800 
73.962	0.0620	0.1416	1.1260	3.1366	0.0000	5.4932	19.4600 
73.963	0.0518	0.1055	1.1499	3.5211	0.0000	5.7458	19.4800 
73.963	0.0000	0.1162	1.1958	3.7463	0.0000	5.8942	19.4600 
73.969	-0.0972	0.0723	1.1147	3.7903	0.0659	5.9491	19.4600 
73.987	-0.1519	-0.0342	1.1113	3.6694	0.1978	5.9271	19.4700 
74.007	-0.1880	-0.1294	1.2427	3.4662	0.3241	5.9491	19.4600 
74.029	-0.1025	-0.0732	1.2803	3.2135	0.3790	6.1523	19.4600 
74.048	0.0430	0.0229	1.1929	2.9498	0.4120	6.4819	19.4600 
74.148	0.0688	0.0596	1.0981	2.7795	0.4230	6.8115	19.4600 
74.159	0.0430	0.1016	0.9312	2.6697	0.4285	7.0422	19.4600 
74.160	0.0186	0.1006	0.8545	2.5543	0.4230	7.1906	19.4600 
74.160	-0.0005	0.0781	0.8198	2.3511	0.4120	7.2345	19.4500 
74.160	-0.0151	0.0708	0.8320	2.1149	0.3900	7.1851	19.4600 
74.166	-0.0078	0.0659	0.8438	1.9006	0.3131	7.0862	19.4300 
74.186	-0.0034	0.0630	0.8691	1.7303	0.2032	6.9763	19.4400 
74.206	-0.0049	0.0444	0.9316	1.5601	0.1208	6.8390	19.4300 
74.226	-0.0024	0.0518	0.9604	1.3678	0.0769	6.6687	19.4300 
74.247	0.0171	0.0752	0.9531	1.1700	0.0824	6.4929	19.4500 
74.350	0.0112	0.0894	0.9360	1.0327	0.0934	6.3116	19.4400 
74.363	0.0010	0.0947	0.9395	0.9503	0.0934	6.1304	19.4400 
74.363	-0.0049	0.0928	0.9644	0.8679	0.0879	5.9381	19.4200 
74.363	-0.0098	0.1274	0.9707	0.7965	0.0769	5.7404	19.4200 
74.363	0.0005	0.1641	0.9507	0.7690	0.0494	5.5536	19.4200 
74.369	0.0103	0.1499	0.9673	0.7251	0.0000	5.3339	19.4200 
74.385	0.0029	0.1274	1.0142	0.6592	-0.0934	5.0757	19.4000 
74.408	0.0186	0.1118	1.0620	0.6372	-0.2747	4.8395	19.4200 
74.431	0.0098	0.1143	1.0840	0.6372	-0.4724	4.6362	19.4100 
74.453	0.0015	0.1245	1.1064	0.6262	-0.6097	4.4495	19.4100 
74.551	0.0146	0.1392	1.0967	0.6372	-0.7141	4.3286	19.4100 
74.563	0.0273	0.1602	1.0859	0.6812	-0.7855	4.2242	19.4100 
74.563	0.0552	0.1553	1.1294	0.7361	-0.8569	4.0485	19.3900 
74.563	0.1465	0.1372	1.1899	0.8240	-1.0327	3.7793	19.4000 
74.563	0.1455	0.0630	1.2041	1.0822	-1.3348	3.4662	19.4100 
74.569	0.1484	-0.0605	1.2334	1.3843	-1.7139	3.0872	19.3900 
74.585	0.2188	-0.0972	1.2456	1.5381	-2.0435	2.8125	19.3900 
74.606	0.2690	-0.1289	1.1792	1.6260	-2.3566	2.8400	19.3900 
74.629	0.2520	-0.1313	1.1025	1.7029	-2.5763	2.9169	19.3900 
74.652	0.1846	-0.1953	1.1387	1.5436	-2.5818	2.9169	19.4100 
74.746	0.0986	-0.1836	1.1802	1.3788	-2.4829	2.8784	19.3900 
74.758	0.0679	-0.0459	1.1011	1.4502	-2.3621	2.7905	19.3900 
74.759	0.1104	0.0088	0.9912	1.5161	-2.2357	2.7905	19.4000 
74.759	0.1396	0.0186	0.8750	1.5381	-2.0599	2.8510	19.3700 
74.759	0.1563	-0.0083	0.8560	1.4996	-1.8622	2.9279	19.3800 
74.765	0.1323	0.0054	0.8491	1.4612	-1.6644	2.9883	19.3800 
74.784	0.1177	0.0225	0.8462	1.4667	-1.4722	3.0212	19.3800 
74.804	0.1094	0.0127	0.8740	1.4392	-1.2634	3.0267	19.3800 
74.828	0.1113	-0.0146	0.9316	1.3239	-1.0052	2.9993	19.3600 
74.846	0.1191	-0.0034	0.9570	1.1151	-0.7141	2.9608	19.3600 
74.943	0.1265	0.0273	0.9502	0.8954	-0.4230	2.9279	19.3600 
74.955	0.1260	0.0552	0.9712	0.6921	-0.1483	2.8784	19.3400 
74.955	0.1333	0.0806	0.9985	0.5054	0.0934	2.8015	19.3500 
74.955	0.1328	0.0771	1.0015	0.3625	0.3021	2.7026	19.3600 
74.955	0.1118	0.0713	0.9829	0.2747	0.4724	2.6147	19.3700 
74.962	0.0991	0.0654	0.9639	0.2417	0.6262	2.5598	19.3600 
74.982	0.0869	0.0586	0.9902	0.2142	0.7745	2.5378	19.3400 
75.002	0.0942	0.0557	1.0137	0.2032	0.9009	2.5818	19.3400 
75.021	0.1074	0.0791	1.0479	0.2362	1.0162	2.6862	19.3500 
75.041	0.1270	0.0952	1.0728	0.2856	1.0931	2.8345	19.3600 
75.135	0.1592	0.1274	1.0874	0.3406	1.1316	3.0103	19.3600 
75.147	0.1523	0.1606	1.0820	0.4175	1.1865	3.1311	19.3400 
75.147	0.1284	0.1553	1.0405	0.4889	1.2415	3.1586	19.3400 
75.147	0.0830	0.1050	1.0786	0.5658	1.3019	3.1146	19.3400 
75.147	0.0215	0.0381	1.1782	0.6702	1.3348	3.0597	19.3300 
75.169	0.0151	0.0425	1.1538	0.8624	1.3403	3.0872	19.3400 
75.190	-0.0093	-0.0605	1.1802	1.0822	1.3239	3.2739	19.3300 
75.201	-0.0352	-0.0181	1.2441	1.2744	1.2854	3.5266	19.3200 
75.220	-0.0542	0.0649	1.1416	1.3458	1.3129	3.7244	19.3200 
75.242	-0.0757	0.0117	1.0356	1.2415	1.4667	3.8342	19.3100 
75.333	-0.1294	-0.1367	1.0928	1.0547	1.6040	3.9276	19.3400 
75.345	-0.1162	-0.1270	1.1890	0.7855	1.6370	4.0759	19.3300 
75.345	-0.0356	-0.0571	1.1582	0.4999	1.5820	4.3011	19.3100 
75.345	0.0254	-0.0225	1.1099	0.2747	1.4557	4.6198	19.3200 
75.351	0.0601	0.0366	1.0015	0.1703	1.2524	4.9768	19.3100 
75.368	0.0649	0.0405	0.9385	0.0824	1.0492	5.2679	19.3300 
75.389	0.0474	0.0225	0.8501	-0.0439	0.8789	5.4382	19.3100 
75.400	0.0220	0.0181	0.8091	-0.1593	0.7251	5.5096	19.3300 
75.419	-0.0049	0.0146	0.8262	-0.2472	0.5988	5.5206	19.3200 
75.439	-0.0103	0.0215	0.8525	-0.3186	0.4889	5.5481	19.3300 
75.535	0.0112	0.0122	0.9253	-0.4120	0.4285	5.5701	19.3300 
75.549	0.0293	0.0151	0.9629	-0.5219	0.4175	5.5701	19.3100 
75.550	0.0322	0.0366	0.9902	-0.5878	0.4449	5.5426	19.3000 
75.550	0.0200	0.0532	0.9980	-0.5988	0.4944	5.4987	19.3100 
75.550	0.0029	0.0605	1.0024	-0.5713	0.5493	5.4492	19.3100 
75.570	-0.0063	0.0693	1.0059	-0.5383	0.6152	5.4053	19.3100 
75.579	-0.0005	0.0942	0.9873	-0.4779	0.6921	5.3943	19.3200 
75.600	0.0088	0.1235	0.9751	-0.3735	0.7635	5.3888	19.3100 
75.618	0.0054	0.1509	0.9790	-0.2307	0.8185	5.3284	19.3000 
75.637	0.0034	0.1631	0.9976	-0.0879	0.8569	5.2075	19.3100 
75.729	-0.0205	0.1533	1.0317	0.0385	0.8734	5.0372	19.3100 
75.740	-0.0444	0.1245	1.0737	0.1428	0.8844	4.8395	19.3000 
75.740	-0.0532	0.1143	1.1030	0.2307	0.8844	4.6527	19.3100 
75.740	-0.0347	0.1528	1.0513	0.3406	0.8789	4.5044	19.3200 
75.756	-0.0146	0.1792	1.0313	0.4669	0.8954	4.3396	19.3000 
75.764	0.0581	0.1206	1.1279	0.5273	0.8734	4.0649	19.2900 
75.777	0.1050	0.1157	1.1860	0.6097	0.6976	3.7463	19.3000 
75.796	0.0703	0.0410	1.2461	0.8624	0.4449	3.4058	19.2900 
75.818	0.1201	-0.0122	1.2407	1.0822	0.1538	3.0377	19.3100 
75.838	0.2192	-0.0757	1.2681	1.1371	-0.0989	2.8619	19.3000 
75.863	0.2246	-0.0815	1.2236	1.1975	-0.3131	2.9279	19.2800 
75.884	0.2227	-0.1465	1.0801	1.2030	-0.4504	3.0157	19.3000 
75.979	0.1445	-0.2017	1.1665	0.9613	-0.3571	2.9608	19.3000 
75.990	-0.0039	-0.1436	1.1992	0.8405	-0.1923	2.7466	19.3000 
75.991	-0.0034	-0.0645	1.1040	0.8679	-0.0110	2.5653	19.3000 
75.991	0.0229	0.0039	0.9248	0.9283	0.1538	2.4554	19.2800 
75.991	0.0430	-0.0098	0.8325	0.9778	0.2692	2.4005	19.2700 
75.997	0.0620	-0.0469	0.8354	0.9943	0.3296	2.4170	19.2800 
76.016	0.0708	-0.0488	0.8594	1.0107	0.3571	2.4829	19.2800 
76.036	0.0879	-0.0093	0.8726	1.0986	0.3296	2.5983	19.2800 
76.059	0.1123	-0.0010	0.8901	1.1700	0.2966	2.7466	19.2800 
76.078	0.1387	0.0029	0.9497	1.1426	0.2692	2.9224	19.2700 
76.179	0.1455	0.0166	0.9595	1.0657	0.2637	3.0872	19.2800 
76.191	0.1577	0.0449	0.9561	0.9778	0.2637	3.2080	19.2800 
76.191	0.1470	0.0571	0.9604	0.8899	0.2637	3.2959	19.2800 
76.191	0.1401	0.0615	0.9888	0.8185	0.2582	3.3673	19.2800 
76.191	0.1245	0.0562	1.0166	0.7416	0.2747	3.4222	19.2700 
76.198	0.1104	0.0684	1.0225	0.6976	0.3076	3.4772	19.2800 
76.216	0.1221	0.0835	1.0024	0.7251	0.3406	3.5870	19.2700 
76.237	0.1406	0.1001	1.0078	0.8240	0.3625	3.7683	19.2700 
76.258	0.1460	0.1172	1.0117	0.9668	0.3845	3.9990	19.2700 
76.280	0.1616	0.1714	1.0142	1.1481	0.4010	4.2462	19.2700 
76.380	0.1748	0.1978	1.0439	1.3129	0.4340	4.4659	19.2600 
76.392	0.1958	0.2085	1.0469	1.4227	0.4889	4.5978	19.2500 
76.392	0.1709	0.1436	1.0537	1.4557	0.6042	4.6198	19.2600 
76.392	0.0952	0.0830	1.0430	1.5106	0.7635	4.5978	19.2400 
76.392	0.0688	0.0576	1.0063	1.6754	0.9174	4.6527	19.2400 
76.398	0.0264	-0.0093	1.0889	1.9720	1.0602	4.8999	19.2600 
76.414	0.0415	0.0273	1.2529	2.3676	1.1481	5.3229	19.2600 
76.438	0.1216	0.1743	1.2915	2.8125	1.1810	5.8502	19.2500 
76.458	0.1230	0.2524	1.2202	3.1805	1.2964	6.2457	19.2500 
76.480	-0.0439	0.1709	1.0898	3.3124	1.6699	6.2897	19.2600 
76.577	-0.1147	-0.0288	1.0703	3.0432	2.1588	6.1139	19.2400 
76.588	-0.2490	-0.2778	1.1807	2.5818	2.6257	5.8942	19.2500 
76.588	-0.2466	-0.2456	1.2188	2.1973	2.9663	5.7568	19.2500 
76.588	-0.1133	-0.1094	1.1255	1.9171	3.0927	5.8777	19.2500 
76.588	-0.0601	-0.0674	1.1011	1.7139	3.1366	6.1633	19.2500 
76.594	-0.0366	0.0044	1.0234	1.6479	3.1256	6.5369	19.2400 
76.613	-0.0259	0.0376	0.9570	1.6150	3.1146	6.8719	19.2500 
76.634	-0.0049	0.0591	0.8950	1.5820	3.0817	7.1796	19.2500 
76.657	-0.0142	0.0737	0.8413	1.5271	3.0103	7.4103	19.2400 
76.678	-0.0410	0.0742	0.8374	1.4557	2.9333	7.4982	19.2500 
76.775	-0.0396	0.0444	0.8472	1.3458	2.8400	7.4817	19.2400 
76.789	-0.0356	0.0205	0.8613	1.1975	2.7411	7.3938	19.2200 
76.789	-0.0420	0.0088	0.8960	1.0272	2.6257	7.2729	19.2200 
76.790	-0.0376	0.0195	0.9165	0.8899	2.5159	7.1521	19.2400 
76.790	-0.0171	0.0557	0.9409	0.8075	2.3895	7.0477	19.2300 
76.797	0.0034	0.0918	0.9551	0.7745	2.2522	6.9434	19.2400 
76.812	0.0249	0.1216	1.0117	0.7306	2.1313	6.8225	19.2000 
76.833	0.0181	0.1440	1.0107	0.7251	2.0215	6.6577	19.2200 
76.855	0.0015	0.1724	0.9751	0.7635	1.8951	6.4874	19.2300 
76.879	-0.0020	0.1758	0.9756	0.7910	1.7578	6.3116	19.2200 
76.974	-0.0059	0.1421	1.0264	0.7416	1.6370	6.0919	19.2300 
76.986	-0.0103	0.1396	1.0537	0.6976	1.5106	5.8392	19.2200 
76.986	-0.0166	0.1367	1.0645	0.7251	1.3348	5.6305	19.2100 
76.987	-0.0068	0.1353	1.0859	0.7855	1.1206	5.4712	19.2400 
76.987	0.0049	0.1440	1.0845	0.8514	0.9119	5.3778	19.2200 
76.993	0.0283	0.1606	1.0723	0.9229	0.7196	5.3009	19.2200 
77.011	0.0962	0.1401	1.1533	0.9943	0.5109	5.1855	19.2100 
77.032	0.1514	0.1274	1.2002	1.0931	0.2142	5.0043	19.2100 
77.053	0.1221	0.0386	1.2559	1.3403	-0.1208	4.7736	19.2100 
77.073	0.1245	0.0039	1.2310	1.6205	-0.4175	4.5264	19.2000 
77.179	0.1548	-0.0415	1.1367	1.8457	-0.6482	4.3671	19.2100 
77.193	0.1606	-0.0562	1.0913	1.9830	-0.7635	4.3121	19.2000 
77.193	0.2002	-0.0591	1.0791	1.9720	-0.7526	4.2078	19.1900 
77.193	0.1982	-0.0864	1.1382	1.8402	-0.7031	4.0155	19.2000 
77.193	0.1152	-0.0981	1.1929	1.6589	-0.6427	3.7189	19.1900 
77.200	0.0688	-0.0811	1.1758	1.5161	-0.5328	3.3673	19.2000 
77.214	0.0537	-0.0718	1.0815	1.4063	-0.4120	3.0597	19.2100 
77.235	0.0503	-0.0435	1.0132	1.3074	-0.2802	2.8564	19.2000 
77.256	0.0840	0.0122	0.8994	1.2579	-0.1593	2.7576	19.1900 
77.279	0.1143	0.0327	0.8325	1.2634	-0.0879	2.7521	19.1900 
77.378	0.1147	0.0376	0.8149	1.2744	-0.0330	2.7136	19.1800 
77.391	0.1021	0.0234	0.8306	1.2415	0.0275	2.5983	19.2000 
77.391	0.0815	-0.0171	0.8687	1.1261	0.1154	2.4500	19.2000 
77.391	0.0781	-0.0249	0.8979	0.9723	0.2252	2.3236	19.2100 
77.391	0.0952	-0.0132	0.9434	0.8075	0.3296	2.3291	19.2000 
77.397	0.1187	0.0093	0.9624	0.6812	0.4010	2.4554	19.1900 
77.416	0.1392	0.0703	0.9819	0.6207	0.4614	2.6422	19.1900 
77.430	0.1450	0.0889	0.9976	0.6042	0.5273	2.8290	19.1800 
77.446	0.1274	0.0889	0.9985	0.5988	0.5933	3.0267	19.1900 
77.467	0.1143	0.0845	0.9868	0.6042	0.6592	3.2135	19.1700 
77.557	0.0952	0.0835	1.0078	0.6427	0.7031	3.4113	19.1800 
77.563	0.0908	0.1074	1.0518	0.7306	0.7306	3.6475	19.1800 
77.563	0.1221	0.1587	1.0659	0.8295	0.7581	3.8727	19.1700 
77.563	0.1831	0.1626	1.0562	0.8789	0.7965	4.0320	19.1900 
77.570	0.1592	0.1245	1.0518	0.8789	0.8844	4.0594	19.1800 
77.590	0.0737	0.0127	1.0391	0.9229	0.9778	4.0540	19.1800 
77.613	-0.0142	-0.0815	1.1455	1.0437	1.0602	4.0924	19.1600 
77.637	-0.0479	0.0391	1.3276	1.3733	1.1096	4.2792	19.1700 
77.646	0.0430	0.1226	1.1802	1.8512	1.0822	4.6527	19.1900 
77.743	0.0342	0.1074	1.1328	2.1863	1.0931	4.9988	19.1800 
77.752	-0.0522	0.0420	1.1357	2.3346	1.1371	5.2570	19.1600 
77.752	-0.1187	-0.0757	1.1626	2.2028	1.2469	5.3503	19.1600 
77.752	-0.1392	-0.1226	1.1665	1.9666	1.3678	5.3888	19.1600 
77.752	-0.0874	-0.0815	1.1782	1.7303	1.3953	5.5481	19.1400 
77.773	-0.0181	-0.0332	1.1455	1.4941	1.3623	5.8722	19.1600 
77.785	0.0278	-0.0039	1.0767	1.3019	1.3019	6.2787	19.1600 
77.804	0.0405	0.0166	0.9902	1.1536	1.2030	6.6632	19.1600 
77.824	0.0498	0.0366	0.8696	1.0052	1.0657	6.9818	19.1600 
77.844	0.0518	0.0269	0.8267	0.8459	0.8954	7.2235	19.1700 
77.864	0.0264	0.0112	0.8247	0.6702	0.7361	7.3553	19.1600 
77.884	0.0039	0.0122	0.8472	0.5054	0.6042	7.3993	19.1800 
77.973	-0.0015	-0.0015	0.9019	0.3406	0.4944	7.3993	19.1500 
77.979	0.0107	0.0044	0.9517	0.1923	0.4175	7.3773	19.1600 
77.979	0.0210	0.0269	0.9985	0.0549	0.3955	7.3224	19.1500 
77.979	0.0273	0.0562	0.9868	-0.0275	0.4120	7.2290	19.1600 
77.985	0.0225	0.0791	0.9678	-0.0385	0.4065	7.1136	19.1400 
78.006	0.0054	0.0684	0.9854	-0.0494	0.3900	6.9873	19.1400 
78.028	-0.0093	0.0654	1.0088	-0.0934	0.4010	6.8335	19.1400 
78.050	-0.0107	0.0752	0.9990	-0.1208	0.4449	6.6687	19.1400 
78.071	-0.0049	0.1001	0.9937	-0.0934	0.4669	6.5039	19.1200 
78.158	0.0088	0.1147	1.0054	-0.0494	0.4449	6.3501	19.1400 
78.169	0.0225	0.1323	1.0068	0.0055	0.3845	6.1908	19.1400 
78.169	0.0181	0.1304	1.0034	0.0824	0.2911	6.0315	19.1200 
78.169	-0.0034	0.1187	1.0269	0.1593	0.2087	5.8887	19.1100 
78.169	-0.0103	0.1177	1.0317	0.2307	0.1538	5.7458	19.1300 
78.191	0.0010	0.1221	1.0186	0.3021	0.1154	5.6030	19.1100 
78.213	0.0283	0.0933	1.0752	0.3625	0.0714	5.4492	19.1100 
78.222	0.1060	0.0630	1.2212	0.4175	-0.0439	5.2899	19.1200 
78.242	0.1357	0.0200	1.2813	0.5383	-0.2527	5.1526	19.1300 
78.262	0.1689	-0.0059	1.2822	0.7031	-0.4724	5.0043	19.1100 
78.282	0.1938	-0.0254	1.1826	0.9009	-0.7086	4.9329	19.1100 
78.301	0.1895	-0.0605	1.0693	1.0492	-0.8789	4.9603	19.0900 
78.390	0.1777	-0.1084	1.0664	1.0657	-0.9503	4.9933	19.0900 
78.396	0.1440	-0.1553	1.1821	0.9064	-0.9283	4.8889	19.0900 
78.396	0.1108	-0.1313	1.2178	0.7635	-0.8954	4.6692	19.1000 
78.396	0.0732	-0.0562	1.1729	0.7416	-0.8185	4.3890	19.0900 
78.402	0.0913	-0.0308	1.0791	0.7635	-0.7086	4.1473	19.0900 
78.423	0.0898	-0.0127	0.9360	0.7635	-0.5658	4.0045	19.0900 
78.446	0.1030	-0.0044	0.8633	0.7635	-0.4010	3.9331	19.0800 
78.466	0.1045	-0.0049	0.8154	0.7690	-0.2527	3.9276	19.0900 
78.488	0.0747	-0.0088	0.8062	0.7855	-0.1044	3.8947	19.0800 
78.576	0.0552	-0.0342	0.8555	0.7690	0.0549	3.8068	19.0900 
78.587	0.0728	-0.0483	0.9121	0.7086	0.2032	3.7408	19.0900 
78.587	0.0884	-0.0415	0.9287	0.6042	0.3625	3.7354	19.0900 
78.587	0.1021	-0.0029	0.9141	0.4889	0.5273	3.7573	19.0800 
78.587	0.1138	0.0234	0.9336	0.3735	0.6812	3.8287	19.0800 
78.610	0.1426	0.0386	1.0049	0.2582	0.7855	3.9386	19.0800 
78.631	0.1470	0.0586	1.0454	0.1703	0.8624	4.0210	19.0700 
78.640	0.1392	0.0762	1.0703	0.1263	0.9229	4.0594	19.0500 
78.660	0.1167	0.0737	1.0591	0.1044	1.0107	4.0265	19.0800 
78.680	0.0889	0.0767	1.0269	0.1208	1.1096	3.9935	19.0700 
78.753	0.0859	0.0854	1.0176	0.1978	1.1920	4.0210	19.0700 
78.764	0.0996	0.1108	1.0205	0.3241	1.2305	4.1309	19.0600 
78.765	0.1143	0.1265	1.0254	0.4614	1.2360	4.2902	19.0800 
78.765	0.1426	0.1572	1.0488	0.5768	1.2305	4.4495	19.0700 
78.785	0.1592	0.1611	1.0430	0.6812	1.2360	4.5538	19.0700 
78.807	0.1577	0.1323	1.0093	0.7745	1.2524	4.5374	19.0600 
78.828	0.1084	0.0654	1.0210	0.8624	1.2689	4.4769	19.0500 
78.839	0.0068	-0.0347	1.2065	0.9943	1.2689	4.4385	19.0500 
78.859	-0.0024	0.0435	1.2676	1.2469	1.2085	4.5154	19.0800 
78.878	0.0176	0.1040	1.2080	1.5710	1.0986	4.7241	19.0600 
78.898	0.0186	0.1094	1.1509	1.8127	1.0162	4.9274	19.0600 
78.991	-0.0352	0.0459	1.0225	1.9226	1.0492	4.9988	19.0600 
78.998	-0.0640	-0.0786	1.0430	1.7798	1.1591	4.8944	19.0600 
78.998	-0.1519	-0.1567	1.1455	1.5875	1.2085	4.7516	19.0600 
78.998	-0.1563	-0.1069	1.1851	1.4282	1.2140	4.6527	19.0500 
78.998	-0.0371	-0.0547	1.1665	1.2085	1.2030	4.7186	19.0600 
79.024	0.0015	-0.0439	1.1611	0.9943	1.1975	4.8999	19.0700 
79.046	0.0469	0.0020	1.0718	0.8459	1.1591	5.1141	19.0500 
79.068	0.0635	0.0410	0.9741	0.7471	1.0767	5.3119	19.0500 
79.077	0.0493	0.0513	0.8823	0.6317	0.9778	5.4382	19.0700 
79.171	0.0264	0.0220	0.8652	0.4724	0.8954	5.4327	19.0700 
79.177	-0.0210	0.0166	0.8589	0.2966	0.8459	5.3229	19.0400 
79.177	-0.0332	0.0088	0.8667	0.1373	0.8185	5.1801	19.0300 
79.177	-0.0127	-0.0063	0.9019	-0.0220	0.7965	5.0647	19.0400 
79.177	0.0000	-0.0063	0.9370	-0.1868	0.7910	4.9713	19.0400 
79.205	0.0161	0.0195	0.9512	-0.3021	0.8020	4.8779	19.0400 
79.227	0.0234	0.0283	0.9570	-0.3516	0.8130	4.8065	19.0500 
79.247	0.0215	0.0493	0.9600	-0.3680	0.8240	4.7351	19.0400 
79.256	0.0063	0.0508	0.9893	-0.3900	0.8624	4.6307	19.0200 
79.276	-0.0078	0.0781	1.0059	-0.3790	0.9174	4.4989	19.0300 
79.296	-0.0093	0.1074	0.9951	-0.3021	0.9558	4.3726	19.0300 
79.315	0.0029	0.1333	0.9810	-0.2142	0.9613	4.2737	19.0300 
79.336	-0.0005	0.1353	0.9854	-0.1648	0.9503	4.1583	19.0400 
79.412	-0.0098	0.1309	1.0161	-0.1318	0.9119	4.0594	19.0500 
79.424	-0.0137	0.1294	1.0493	-0.1044	0.8350	3.9825	19.0500 
79.424	-0.0186	0.1162	1.0894	-0.0989	0.7526	3.9276	19.0300 
79.425	-0.0190	0.1216	1.1016	-0.0769	0.6647	3.8727	19.0300 
79.445	-0.0112	0.1289	1.0972	-0.0220	0.5658	3.8397	19.0200 
79.454	0.0146	0.1436	1.0747	0.0604	0.4395	3.8177	19.0300 
79.475	0.0239	0.1396	1.0903	0.1978	0.3021	3.7573	19.0400 
79.495	0.0747	0.1396	1.1978	0.3680	0.1208	3.6255	19.0300 
79.514	0.1123	0.1343	1.1826	0.6207	-0.1483	3.4772	19.0300 
79.595	0.1318	0.0356	1.2705	0.8240	-0.4230	3.2574	19.0300 
79.604	0.1938	-0.0161	1.2617	0.9064	-0.7251	3.0597	19.0300 
79.604	0.2285	-0.0342	1.0464	1.0602	-1.0657	3.0212	19.0100 
79.604	0.2031	-0.0942	0.9404	1.2195	-1.3458	3.1201	19.0200 
79.614	0.1772	-0.2075	1.0303	1.0986	-1.4612	3.1641	19.0200 
79.634	0.1377	-0.2070	1.1226	0.8734	-1.4502	3.0048	19.0300 
79.653	0.0791	-0.1147	1.1909	0.7416	-1.3458	2.7136	19.0200 
79.673	0.0757	-0.0400	1.1592	0.6866	-1.1975	2.4170	19.0300 
79.693	0.1016	0.0034	1.0225	0.6757	-1.0162	2.2192	19.0300 
79.778	0.1074	0.0083	0.9219	0.6812	-0.8185	2.0874	19.0300 
79.790	0.1094	-0.0005	0.8716	0.6647	-0.6207	2.0105	19.0100 
79.790	0.0947	0.0083	0.8569	0.6537	-0.4449	1.9281	19.0100 
79.790	0.0776	0.0103	0.8755	0.6537	-0.2856	1.8567	19.0000 
79.797	0.0732	0.0000	0.8896	0.6647	-0.1483	1.7963	19.0100 
79.813	0.0854	-0.0103	0.9292	0.6262	-0.0330	1.7688	19.0000 
79.833	0.0972	0.0137	0.9473	0.5383	0.0824	1.7688	19.0200 
79.857	0.1377	0.0410	0.9600	0.4230	0.1978	1.8182	19.0000 
79.873	0.1475	0.0742	0.9678	0.3351	0.2911	1.8951	18.9900 
79.897	0.1465	0.0742	0.9839	0.2582	0.3735	1.9446	18.9900 
79.920	0.1353	0.0503	1.0103	0.1538	0.4614	1.9775	19.0000 
79.942	0.1006	0.0410	1.0254	0.0714	0.5658	2.0160	18.9900 
80.018	0.0913	0.0356	1.0166	0.0220	0.6921	2.1094	19.0000 
80.028	0.0923	0.0532	1.0229	0.0220	0.8130	2.2687	18.9900 
80.029	0.1089	0.0718	1.0352	0.0824	0.9009	2.5104	18.9900 
80.029	0.1362	0.1152	1.0635	0.1923	0.9613	2.7905	18.9900 
80.035	0.1582	0.1465	1.0679	0.3021	0.9998	3.0652	18.9900 
80.057	0.1626	0.1685	1.0684	0.3955	1.0437	3.2959	18.9900 
80.071	0.1484	0.1553	1.0674	0.4669	1.1041	3.4607	18.9900 
80.094	0.0947	0.1055	1.0635	0.5383	1.1810	3.5486	19.0000 
80.118	0.0425	0.0513	1.1187	0.6537	1.2799	3.6035	18.9900 
80.200	0.0161	0.0371	1.2329	0.8624	1.3678	3.7354	18.9900 
80.211	0.0415	0.0674	1.2334	1.1316	1.4392	3.9551	18.9800 
80.211	0.0313	0.0737	1.1938	1.4337	1.4667	4.1693	18.9900 
80.211	-0.0054	0.1001	1.1113	1.7249	1.4777	4.3011	18.9900 
80.217	-0.0654	0.0103	0.9678	1.8127	1.5710	4.2517	18.9900 
80.232	-0.1309	-0.1035	0.9683	1.7029	1.7303	4.0485	18.9900 
80.252	-0.2183	-0.1958	1.0913	1.5051	1.8622	3.7958	18.9800 
80.277	-0.1646	-0.0977	1.1362	1.3184	1.8842	3.7134	18.9800 
80.298	-0.0444	-0.0303	1.1338	1.1151	1.8182	3.9001	18.9800 
80.384	-0.0093	-0.0112	1.1396	0.9174	1.7578	4.1254	18.9900 
80.395	0.0181	0.0112	1.0884	0.7745	1.6864	4.3121	18.9900 
80.395	0.0547	0.0537	0.9561	0.6702	1.5601	4.4550	18.9800 
80.395	0.0532	0.0586	0.8716	0.5438	1.3733	4.5593	19.0000 
80.395	0.0200	0.0571	0.8179	0.4285	1.1481	4.6252	18.9800 
80.417	0.0103	0.0435	0.8325	0.3076	0.9009	4.6637	18.9900 
80.429	-0.0083	0.0254	0.8823	0.1868	0.6647	4.6802	18.9800 
80.449	-0.0015	0.0166	0.9150	0.0659	0.4395	4.7076	18.9800 
80.469	0.0332	0.0425	0.9482	-0.0330	0.2362	4.7516	18.9700 
80.489	0.0581	0.0664	0.9712	-0.1154	0.0549	4.7955	18.9700 
80.509	0.0728	0.0781	0.9937	-0.1648	-0.0824	4.8120	18.9700 
80.528	0.0488	0.0923	0.9736	-0.1318	-0.1978	4.8065	18.9900 
80.613	0.0176	0.0928	0.9658	-0.0934	-0.2747	4.7791	18.9800 
80.619	0.0156	0.0874	0.9683	-0.0769	-0.3351	4.7461	18.9500 
80.619	0.0142	0.1035	0.9785	-0.0824	-0.3735	4.7076	18.9800 
80.619	0.0259	0.1230	0.9917	-0.0879	-0.4285	4.6692	18.9700 
80.628	0.0410	0.1367	1.0518	-0.1044	-0.5164	4.6033	18.9700 
80.648	0.0425	0.1484	1.0942	-0.0989	-0.6317	4.4989	18.9700 
80.668	0.0244	0.1377	1.1289	-0.0439	-0.7526	4.3671	18.9500 
80.691	0.0000	0.1206	1.1245	0.0220	-0.8459	4.2297	18.9600 
80.713	0.0034	0.1284	1.0933	0.1318	-0.9119	4.1089	18.9600 
80.730	0.0288	0.1377	1.0889	0.2692	-0.9833	4.0210	18.9600 
80.747	0.1108	0.1099	1.2036	0.3680	-1.1041	3.9111	18.9600 
80.767	0.1729	0.1069	1.2251	0.4834	-1.3074	3.8177	18.9600 
80.857	0.1738	0.0156	1.2822	0.6262	-1.5051	3.7134	18.9600 
80.865	0.1787	-0.0400	1.2446	0.7471	-1.6809	3.6145	18.9500 
80.865	0.2173	-0.0259	1.1353	0.8899	-1.8347	3.5925	18.9600 
80.865	0.2490	-0.0713	1.0063	0.9888	-1.9885	3.7134	18.9500 
80.872	0.2305	-0.1152	0.9897	0.9064	-1.9940	3.7354	18.9600 
80.891	0.1699	-0.1875	1.0762	0.6647	-1.8402	3.5870	18.9600 
80.912	0.0547	-0.1714	1.1958	0.4065	-1.5875	3.2629	18.9400 
80.935	0.0381	-0.1104	1.1465	0.2527	-1.3403	2.9498	18.9400 
80.955	0.0562	-0.0601	1.0054	0.1648	-1.0876	2.7686	18.9500 
81.050	0.0811	-0.0391	0.9058	0.1373	-0.8624	2.7081	18.9400 
81.060	0.1211	-0.0298	0.8452	0.1263	-0.6592	2.7191	18.9400 
81.061	0.1279	-0.0225	0.8359	0.1099	-0.4834	2.7356	18.9300 
81.061	0.1006	-0.0068	0.8628	0.1208	-0.3241	2.6642	18.9300 
81.061	0.0898	-0.0269	0.8970	0.1208	-0.1593	2.5433	18.9100 
81.068	0.0869	-0.0444	0.9248	0.0879	-0.0110	2.4335	18.9400 
81.085	0.0977	-0.0244	0.9380	0.0439	0.1154	2.3785	18.9300 
81.105	0.1250	0.0391	0.9438	0.0165	0.2142	2.3895	18.9200 
81.127	0.1387	0.0610	0.9546	0.0055	0.2802	2.4335	18.9200 
81.146	0.1436	0.0728	0.9824	-0.0110	0.3296	2.4884	18.9300 
81.223	0.1406	0.0645	1.0088	-0.0549	0.3735	2.5488	18.9300 
81.234	0.1221	0.0430	1.0405	-0.1263	0.4614	2.5983	18.9300 
81.234	0.1172	0.0317	1.0508	-0.2142	0.5713	2.6697	18.9200 
81.234	0.1226	0.0488	1.0571	-0.2417	0.6702	2.8235	18.9200 
81.245	0.1230	0.0693	1.0625	-0.1923	0.7471	3.0377	18.9100 
81.264	0.1255	0.1162	1.0703	-0.0604	0.8240	3.2959	18.9000 
81.285	0.1514	0.1616	1.0576	0.0714	0.8954	3.5980	18.9100 
81.304	0.1870	0.2012	1.0190	0.1868	0.9503	3.9001	18.9100 
81.324	0.2109	0.1929	1.0054	0.2197	0.9998	4.1309	18.9000 
81.410	0.1812	0.1353	1.0215	0.1978	1.0492	4.2462	18.9100 
81.421	0.0718	-0.0039	1.0972	0.2252	1.0986	4.3011	18.9000 
81.421	-0.0044	-0.0757	1.2319	0.3571	1.1536	4.3671	18.9100 
81.421	0.0308	0.0083	1.2295	0.6537	1.1481	4.5703	18.9000 
81.427	0.0127	0.0107	1.1807	1.0272	1.1316	4.8724	18.9000 
81.443	-0.0610	0.0283	1.1406	1.3843	1.1041	5.1581	18.8800 
81.466	-0.1025	0.0322	1.0723	1.6205	1.1096	5.3778	18.9000 
81.486	-0.1226	-0.0762	1.0732	1.6205	1.1591	5.5151	18.9000 
81.511	-0.1436	-0.1138	1.1348	1.5271	1.1646	5.6580	18.9000 
81.530	-0.0649	-0.0386	1.1421	1.3678	1.0931	5.8722	18.9100 
81.552	-0.0029	-0.0146	1.1255	1.1755	0.9888	6.1359	18.8900 
81.572	0.0366	0.0034	1.0850	0.9943	0.8679	6.3666	18.9000 
81.657	0.0537	0.0166	1.0181	0.8514	0.7141	6.5698	18.8900 
81.666	0.0576	0.0298	0.9160	0.7251	0.5603	6.7346	18.8800 
81.666	0.0439	0.0303	0.8687	0.6372	0.4065	6.8939	18.8900 
81.666	0.0176	0.0493	0.8486	0.6152	0.2692	7.0313	18.9000 
81.666	0.0171	0.0698	0.8589	0.5933	0.1538	7.1356	18.8900 
81.690	0.0264	0.0894	0.8677	0.5328	0.0714	7.1576	18.8700 
81.712	0.0352	0.0869	0.8657	0.4449	0.0220	7.1301	18.8900 
81.721	0.0400	0.0762	0.8975	0.3131	0.0055	7.0258	18.8900 
81.741	0.0386	0.0762	0.9224	0.1428	0.0000	6.8665	18.8700 
81.761	0.0063	0.0620	0.9551	-0.0165	-0.0055	6.6852	18.8900 
81.836	-0.0186	0.0518	0.9648	-0.1593	-0.0055	6.5314	18.8600 
81.845	-0.0171	0.0581	0.9609	-0.2692	-0.0055	6.4050	18.8500 
81.846	0.0059	0.0728	0.9517	-0.3351	-0.0494	6.3226	18.8500 
81.846	0.0068	0.0664	0.9570	-0.3186	-0.1813	6.3226	18.8500 
81.870	0.0049	0.0664	1.0381	-0.2252	-0.4010	6.4270	18.8600 
81.881	0.0381	0.1172	1.1147	-0.0989	-0.6812	6.5479	18.8500 
81.900	0.0371	0.1460	1.1367	0.0385	-0.9174	6.6193	18.8500 
81.920	0.0415	0.1709	1.1304	0.2252	-1.1041	6.6522	18.8500 
81.940	0.0566	0.1699	1.0986	0.4175	-1.2634	6.6632	18.8700 
82.019	0.0684	0.1582	1.0820	0.6317	-1.4063	6.6248	18.8700 
82.029	0.0918	0.1284	1.1753	0.8075	-1.5546	6.5314	18.8500 
82.029	0.1772	0.0986	1.2056	0.9668	-1.7743	6.3721	18.8600 
82.029	0.1704	0.0449	1.2236	1.1481	-1.9830	6.1963	18.8600 
82.041	0.2041	-0.0723	1.2100	1.2360	-2.1533	6.0425	18.8500 
82.059	0.2212	-0.1035	1.1357	1.3568	-2.3346	5.9656	18.8500 
82.079	0.2388	-0.1201	1.0693	1.4832	-2.4609	5.9656	18.8500 
82.099	0.2349	-0.1797	1.1431	1.4337	-2.4664	5.9271	18.8500 
82.119	0.1426	-0.1938	1.2471	1.3348	-2.3785	5.7788	18.8600 
82.139	0.0874	-0.1230	1.2241	1.3293	-2.2357	5.5701	18.8400 
82.161	0.0649	-0.0288	1.0454	1.4502	-2.0490	5.3778	18.8300 
82.252	0.0566	-0.0039	0.9116	1.6095	-1.8457	5.2460	18.8500 
82.258	0.0801	0.0034	0.8179	1.7578	-1.6589	5.2075	18.8500 
82.258	0.1216	0.0054	0.7915	1.8567	-1.5216	5.2625	18.8400 
82.258	0.1226	0.0068	0.8184	1.9116	-1.3953	5.2789	18.8400 
82.258	0.1157	0.0068	0.8501	1.9336	-1.2799	5.2185	18.8400 
82.287	0.1206	0.0073	0.8765	1.8896	-1.1646	5.1251	18.8300 
82.309	0.1362	0.0005	0.9136	1.7523	-1.0492	5.0372	18.8400 
82.318	0.1348	0.0161	0.9248	1.5656	-0.8899	4.9384	18.8400 
82.338	0.1528	0.0430	0.9551	1.3458	-0.7141	4.8505	18.8400 
82.358	0.1587	0.0552	0.9790	1.1371	-0.5713	4.8230	18.8500 
82.434	0.1533	0.0693	1.0249	0.9778	-0.4724	4.8669	18.8300 
82.443	0.1543	0.0640	1.0610	0.8679	-0.4175	4.9768	18.8400 
82.443	0.1396	0.0610	1.0645	0.8185	-0.3625	5.1196	18.8400 
82.443	0.1304	0.0752	1.0400	0.8569	-0.2856	5.3119	18.8200 
82.468	0.1265	0.1011	1.0146	0.9888	-0.2087	5.5756	18.8300 
82.478	0.1357	0.1235	1.0132	1.1646	-0.1373	5.8887	18.8300 
82.497	0.1719	0.1665	1.0122	1.3788	-0.0989	6.2402	18.8300 
82.516	0.1914	0.1978	1.0044	1.6040	-0.0659	6.5533	18.8300 
82.537	0.1821	0.1631	1.0068	1.7523	0.0000	6.7346	18.8300 
82.607	0.1191	0.0630	1.1099	1.8018	0.0879	6.8060	18.8100 
82.616	0.0239	0.0220	1.3745	1.8457	0.2032	6.8445	18.8100 
82.616	0.0186	0.0820	1.3569	1.9940	0.3021	6.9543	18.8100 
82.622	-0.0239	0.1372	1.1748	2.1918	0.4175	7.1082	18.8200 
82.637	-0.0674	0.0835	1.1001	2.2742	0.5438	7.2565	18.8200 
82.660	-0.0840	-0.0815	1.0649	2.1423	0.6372	7.3718	18.8300 
82.679	-0.1313	-0.1445	1.1187	1.8677	0.6866	7.5092	18.8200 
82.704	-0.1377	-0.0591	1.1030	1.5710	0.7086	7.7563	18.8200 
82.728	-0.0732	-0.0303	1.0703	1.2415	0.7471	8.1683	18.8200 
82.736	0.0068	-0.0415	1.0850	0.8899	0.7690	8.6243	18.8200 
82.755	0.0366	-0.0391	1.0454	0.5383	0.7251	9.0143	18.8200 
82.835	0.0503	-0.0024	0.9502	0.2087	0.6372	9.3054	18.8000 
82.841	0.0313	0.0122	0.8931	-0.0439	0.5054	9.5361	18.8000 
82.841	0.0249	0.0166	0.8706	-0.2142	0.3516	9.7559	18.8100 
82.841	0.0254	0.0327	0.8818	-0.3571	0.2197	9.9591	18.8100 
82.855	0.0112	0.0449	0.8970	-0.5054	0.1428	10.1074	18.8100 
82.875	0.0122	0.0337	0.9194	-0.6976	0.1044	10.1953	18.7900 
82.894	0.0327	0.0322	0.9380	-0.9119	0.0659	10.2667	18.7900 
82.914	0.0352	0.0552	0.9429	-1.1151	0.0439	10.2832	18.8100 
82.934	0.0283	0.0635	0.9258	-1.2634	0.0494	10.2283	18.8000 
82.954	0.0171	0.0508	0.9404	-1.3953	0.0769	10.1459	18.8000 
82.974	-0.0059	0.0371	0.9727	-1.5161	0.1044	10.0305	18.7900 
83.065	-0.0132	0.0420	0.9736	-1.5930	0.1263	9.8932	18.7900 
83.071	-0.0010	0.0718	0.9683	-1.5710	0.1154	9.7614	18.8000 
83.071	0.0264	0.1016	0.9888	-1.4996	0.0549	9.6185	18.7900 
83.071	0.0371	0.1465	1.0542	-1.3843	-0.0714	9.4373	18.7900 
83.077	0.0410	0.1577	1.0889	-1.2744	-0.2472	9.1846	18.8000 
83.100	-0.0068	0.0767	1.1592	-1.2195	-0.3845	8.8220	18.8000 
83.123	-0.0635	0.0200	1.1499	-1.1920	-0.4724	8.4595	18.8100 
83.133	-0.0996	-0.0225	1.1582	-1.1206	-0.4999	8.1958	18.8100 
83.153	0.0210	-0.0078	1.2798	-1.0052	-0.5713	8.0640	18.7600 
83.172	0.1514	0.0972	1.2197	-0.7416	-0.8020	8.0420	18.7600 
83.256	0.2368	0.0835	1.1826	-0.3845	-1.0712	8.0475	18.7800 
83.270	0.2607	0.0210	1.1377	-0.0549	-1.3678	8.0750	18.7800 
83.270	0.2622	-0.0869	1.1367	0.1318	-1.5491	8.1299	18.7800 
83.271	0.2661	-0.1465	1.0635	0.2197	-1.6699	8.1464	18.7800 
83.276	0.2144	-0.1455	1.0811	0.1923	-1.6260	7.9541	18.7800 
83.292	0.1563	-0.2046	1.1396	0.0385	-1.5051	7.6794	18.7800 
83.312	0.0503	-0.1689	1.2080	-0.0330	-1.3129	7.3224	18.7800 
83.332	0.0469	-0.0908	1.1143	0.0055	-1.0712	7.0148	18.7700 
83.354	0.1016	-0.0005	0.9155	0.1263	-0.8405	6.8500	18.7500 
83.447	0.1353	0.0127	0.8384	0.2856	-0.6592	6.8005	18.7600 
83.456	0.1479	0.0288	0.8105	0.4614	-0.5054	6.7731	18.7600 
83.457	0.1313	0.0273	0.8208	0.6207	-0.3406	6.6742	18.7800 
83.457	0.1074	0.0317	0.8550	0.7416	-0.1758	6.5039	18.7600 
83.457	0.1074	0.0049	0.8799	0.7855	-0.0330	6.3062	18.7800 
83.481	0.1011	-0.0166	0.9326	0.7031	0.1044	6.0809	18.7500 
83.491	0.1074	-0.0039	0.9536	0.5988	0.2197	5.8942	18.7500 
83.511	0.1270	0.0137	0.9873	0.5219	0.2802	5.7898	18.7500 
83.531	0.1343	0.0229	1.0127	0.4614	0.2966	5.7404	18.7500 
83.550	0.1328	0.0234	1.0352	0.4230	0.2802	5.7568	18.7600 
83.628	0.1284	0.0205	1.0469	0.3845	0.2637	5.8173	18.7500 
83.640	0.1343	0.0244	1.0483	0.4010	0.2527	5.9491	18.7600 
83.640	0.1401	0.0444	1.0464	0.4999	0.2307	6.1798	18.7600 
83.640	0.1841	0.1045	1.0342	0.6866	0.2142	6.4874	18.7600 
83.650	0.1958	0.1445	1.0366	0.8954	0.1923	6.8500	18.7600 
83.670	0.1958	0.1875	1.0308	1.0986	0.2087	7.1796	18.7900 
83.690	0.1948	0.1836	1.0200	1.2360	0.3021	7.4213	18.7600 
83.709	0.1563	0.1128	0.9956	1.3019	0.4175	7.5641	18.7600 
83.729	0.0801	0.0132	1.0737	1.3788	0.4889	7.6959	18.7500 
83.749	0.0122	-0.0063	1.2998	1.5381	0.4999	7.8992	18.7500 
83.769	0.0610	0.0581	1.2363	1.8677	0.4285	8.2617	18.7600 
83.858	0.0166	0.0596	1.2236	2.2247	0.3680	8.7396	18.7600 
83.864	-0.0488	0.0625	1.1821	2.5104	0.3680	9.2230	18.7500 
83.864	-0.1006	0.0234	1.0601	2.6257	0.5109	9.5966	18.7600 
83.865	-0.1416	-0.0859	1.0796	2.5543	0.7031	9.9316	18.7400 
83.872	-0.1714	-0.1016	1.1733	2.3785	0.8240	10.3162	18.7500 
83.891	-0.0952	-0.0244	1.1646	2.1698	0.8899	10.8270	18.7500 
83.912	0.0054	0.0146	1.1230	1.9226	0.9668	11.3873	18.7500 
83.935	0.0229	0.0283	1.0527	1.7194	1.0107	11.9092	18.7400 
83.956	0.0337	0.0425	0.9385	1.5326	1.0217	12.3102	18.7300 
84.046	0.0283	0.0479	0.8579	1.3678	0.9998	12.6178	18.7400 
84.058	-0.0063	0.0684	0.7798	1.2469	0.9283	12.8210	18.7500 
84.058	-0.0259	0.0674	0.7788	1.1591	0.8295	12.9694	18.7500 
84.058	-0.0366	0.0430	0.8247	1.0272	0.7306	13.0573	18.7300 
84.058	-0.0337	0.0210	0.8804	0.8569	0.6317	13.1177	18.7200 
84.067	-0.0205	0.0181	0.9131	0.6976	0.5273	13.1836	18.7400 
84.087	0.0029	0.0449	0.9390	0.5823	0.4065	13.2495	18.7300 
84.107	0.0215	0.0620	0.9468	0.4999	0.2911	13.3099	18.7400 
84.127	0.0156	0.0854	0.9897	0.4504	0.2142	13.3319	18.7400 
84.147	0.0117	0.0957	1.0137	0.4230	0.1648	13.3044	18.7300 
84.167	0.0210	0.1235	1.0200	0.4010	0.1483	13.2275	18.7300 
84.188	0.0361	0.1489	1.0156	0.3516	0.1648	13.0737	18.7300 
84.287	0.0381	0.1680	0.9761	0.2856	0.1923	12.8430	18.7200 
84.294	0.0288	0.1704	0.9888	0.2417	0.1758	12.5739	18.7200 
84.294	0.0181	0.1685	1.0337	0.2692	0.0549	12.2937	18.7300 
84.294	0.0249	0.1479	1.0781	0.3241	-0.1318	12.0300	18.7200 
84.294	0.0293	0.1313	1.1079	0.4230	-0.3516	11.7828	18.7200 
84.305	0.0317	0.1387	1.0903	0.5658	-0.5603	11.5686	18.7200 
84.326	0.0405	0.1450	1.0835	0.7251	-0.7251	11.3818	18.7300 
84.346	0.0776	0.1167	1.1602	0.8734	-0.8679	11.1676	18.7200 
84.365	0.1743	0.0850	1.2173	1.0492	-1.1041	10.9314	18.7200 
84.385	0.1670	0.0220	1.2676	1.2964	-1.3513	10.6567	18.7100 
84.472	0.1870	-0.0474	1.2280	1.5546	-1.6370	10.3656	18.7200 
84.484	0.2095	-0.0830	1.1831	1.7194	-1.9116	10.1678	18.7200 
84.484	0.2158	-0.0786	1.1401	1.8622	-2.0544	10.0195	18.7100 
84.484	0.2251	-0.1133	1.1294	1.8732	-2.1149	9.8108	18.7300 
84.490	0.1475	-0.1523	1.1938	1.7523	-2.0874	9.5306	18.7200 
84.504	0.0522	-0.1265	1.2100	1.7029	-1.9885	9.1626	18.7100 
84.526	0.0078	-0.0278	1.0757	1.7798	-1.8457	8.7891	18.7100 
84.545	0.0400	0.0195	0.9531	1.8622	-1.6589	8.5199	18.7100 
84.570	0.0688	0.0391	0.8032	1.9336	-1.4447	8.3331	18.7200 
84.653	0.0815	0.0068	0.7676	1.9556	-1.2579	8.2233	18.7200 
84.664	0.0776	-0.0269	0.7896	1.9171	-1.1041	8.1573	18.7100 
84.664	0.0620	-0.0229	0.8389	1.8512	-0.9503	8.0804	18.7100 
84.664	0.0791	-0.0317	0.9155	1.7139	-0.7965	8.0365	18.7100 
84.670	0.1040	-0.0225	0.9375	1.4722	-0.6537	8.0695	18.7100 
84.687	0.1587	0.0005	0.9673	1.2030	-0.5273	8.1793	18.7000 
84.710	0.1802	0.0332	0.9868	0.9119	-0.4395	8.3331	18.6900 
84.732	0.1831	0.0757	1.0034	0.7031	-0.3955	8.4979	18.6900 
84.752	0.1670	0.1025	0.9990	0.5878	-0.3735	8.6243	18.6900 
84.763	0.1450	0.1045	1.0073	0.5383	-0.3680	8.7396	18.6900 
84.783	0.1343	0.0830	1.0156	0.4944	-0.3625	8.8660	18.6900 
84.804	0.1157	0.0469	1.0532	0.4559	-0.3461	9.0802	18.7000 
84.886	0.1118	0.0557	1.0542	0.4779	-0.3021	9.3658	18.6900 
84.892	0.1265	0.1094	1.0454	0.5988	-0.2417	9.7284	18.6800 
84.892	0.1665	0.1567	1.0322	0.7800	-0.1923	10.1349	18.7000 
84.892	0.2271	0.2065	1.0063	0.9888	-0.1758	10.5249	18.6700 
84.902	0.2334	0.1953	0.9922	1.1920	-0.1483	10.8325	18.6900 
84.922	0.2080	0.1475	0.9810	1.3678	-0.1044	11.0468	18.6900 
84.942	0.0811	0.0044	1.0415	1.5765	-0.0385	11.2500	18.6900 
84.962	0.0039	-0.0737	1.2300	1.8512	0.0220	11.5356	18.6800 
84.987	0.0425	0.0591	1.2417	2.3016	0.0000	11.9147	18.6800 
85.056	0.0283	0.0854	1.1875	2.7850	-0.0110	12.3431	18.6700 
85.065	-0.0952	0.0796	1.1333	3.0487	0.1318	12.6563	18.6600 
85.065	-0.1348	0.0303	1.1074	3.0103	0.4010	12.8870	18.6600 
85.065	-0.1294	-0.1128	1.1802	2.7740	0.6207	13.1451	18.6900 
85.090	-0.1274	-0.0869	1.2852	2.4994	0.6976	13.4857	18.6700 
85.111	-0.0034	0.0288	1.2275	2.2467	0.6812	13.8977	18.6800 
85.120	0.0562	0.0688	1.1431	2.0270	0.6592	14.2767	18.6600 
85.141	0.0825	0.0693	0.9814	1.8842	0.5878	14.5898	18.6600 
85.161	0.0732	0.0635	0.8965	1.7523	0.4724	14.8645	18.6700 
85.181	0.0483	0.0591	0.7798	1.6260	0.3131	15.0787	18.6600 
85.200	0.0190	0.0762	0.7251	1.5051	0.1428	15.2600	18.6600 
85.291	0.0088	0.0508	0.7495	1.3843	-0.0385	15.4028	18.6600 
85.297	0.0132	0.0234	0.8208	1.2195	-0.2362	15.5511	18.6700 
85.297	0.0269	0.0313	0.9155	1.0107	-0.3845	15.6830	18.6600 
85.297	0.0435	0.0405	0.9536	0.7910	-0.4669	15.7544	18.6500 
85.303	0.0767	0.0679	0.9600	0.5988	-0.5164	15.7983	18.6400 
85.327	0.0767	0.0845	0.9805	0.4504	-0.5713	15.8258	18.6500 
85.350	0.0459	0.0972	0.9858	0.3735	-0.6152	15.7983	18.6500 
85.368	0.0308	0.0913	0.9839	0.2966	-0.6262	15.7104	18.6500 
85.390	0.0151	0.0923	0.9751	0.2307	-0.6152	15.5951	18.6400 
85.399	0.0137	0.1133	0.9692	0.1978	-0.6042	15.4578	18.6400 
85.481	0.0283	0.1182	1.0479	0.1868	-0.6372	15.3149	18.6300 
85.488	0.0337	0.1250	1.1157	0.1813	-0.7141	15.1447	18.6400 
85.488	0.0410	0.1206	1.1353	0.1923	-0.8240	14.9634	18.6400 
85.488	0.0205	0.1128	1.1221	0.2747	-0.9229	14.8315	18.6400 
85.498	0.0161	0.1050	1.0972	0.4010	-0.9998	14.7711	18.6300 
85.518	0.0498	0.0879	1.1499	0.5328	-1.0767	14.7272	18.6300 
85.538	0.1577	0.1221	1.2065	0.6976	-1.2579	14.6393	18.6600 
85.558	0.1924	0.1177	1.1743	1.0602	-1.5820	14.5184	18.6400 
85.578	0.2432	0.0332	1.1821	1.4227	-2.0270	14.3097	18.6400 
85.664	0.2739	-0.0332	1.1675	1.7139	-2.4774	14.1559	18.6300 
85.675	0.2705	-0.1416	1.1196	1.9501	-2.8784	14.1119	18.6500 
85.675	0.2637	-0.1733	1.1001	2.0709	-3.1476	13.9087	18.6300 
85.676	0.1685	-0.1631	1.2329	1.9666	-3.0981	13.4198	18.6400 
85.682	0.1177	-0.1514	1.2861	1.8018	-2.9114	12.8485	18.6300 
85.697	0.1006	0.0254	1.1631	1.8073	-2.6971	12.2278	18.6300 
85.718	0.1299	0.0547	0.9946	1.9116	-2.4829	11.7114	18.6300 
85.738	0.1289	0.0161	0.8086	2.0160	-2.2852	11.3214	18.6400 
85.766	0.1050	-0.0088	0.7856	2.0984	-2.0764	11.0083	18.6200 
85.776	0.0967	-0.0073	0.7944	2.1423	-1.8732	10.7062	18.6100 
85.797	0.0928	0.0132	0.8140	2.1808	-1.6974	10.4315	18.6100 
85.817	0.1050	-0.0044	0.8589	2.1863	-1.5326	10.2118	18.6100 
85.888	0.1230	-0.0239	0.9248	2.0819	-1.3513	10.0470	18.6100 
85.896	0.1392	-0.0093	0.9492	1.9006	-1.1316	9.9426	18.6100 
85.896	0.1704	0.0332	0.9302	1.7413	-0.9448	9.9097	18.6100 
85.902	0.1890	0.0732	0.9233	1.6589	-0.8569	9.9261	18.6000 
85.920	0.1909	0.0874	0.9775	1.5820	-0.8185	9.9316	18.5900 
85.943	0.1768	0.0898	1.0190	1.4996	-0.7745	9.8822	18.5900 
85.965	0.1499	0.0796	1.0400	1.4502	-0.7306	9.8383	18.6000 
85.986	0.1411	0.0698	1.0386	1.4447	-0.6921	9.8712	18.6200 
86.077	0.1479	0.0796	1.0400	1.5161	-0.6427	10.0085	18.6100 
86.086	0.1587	0.1030	1.0493	1.6589	-0.6042	10.2283	18.6000 
86.086	0.1943	0.1694	1.0376	1.8622	-0.5823	10.4810	18.6000 
86.086	0.2280	0.1958	1.0200	2.0654	-0.5713	10.6897	18.6000 
86.086	0.1997	0.1396	1.0220	2.2742	-0.5383	10.8105	18.5900 
86.095	0.1226	0.0776	1.0552	2.5269	-0.5109	10.8820	18.6000 
86.115	0.0195	0.0288	1.2671	2.9004	-0.5164	10.9644	18.5800 
86.136	0.0571	0.0938	1.2705	3.4387	-0.6537	11.1182	18.5800 
86.154	0.0479	0.1494	1.1938	3.9496	-0.7416	11.2720	18.5900 
86.175	-0.0479	0.1133	1.1274	4.2792	-0.6372	11.3049	18.5900 
86.194	-0.1289	-0.0176	1.0767	4.3176	-0.3955	11.2006	18.6000 
86.214	-0.1626	-0.1108	1.1182	4.1693	-0.1923	11.0962	18.6000 
86.302	-0.1777	-0.1221	1.2529	3.8452	-0.0714	11.1511	18.6000 
86.309	-0.0757	-0.0459	1.2305	3.5431	-0.0549	11.4862	18.5900 
86.309	0.0483	0.0527	1.1279	3.3508	-0.0824	12.0026	18.5900 
86.309	0.0835	0.0854	1.0459	3.2520	-0.1593	12.4915	18.5900 
86.316	0.0840	0.0972	0.9146	3.1970	-0.2802	12.8870	18.6000 
86.336	0.0586	0.0972	0.8545	3.1476	-0.4559	13.2111	18.5900 
86.359	0.0151	0.0654	0.7920	3.1256	-0.6757	13.5077	18.5900 
86.382	-0.0088	0.0527	0.7964	3.0707	-0.8844	13.7439	18.5900 
86.401	-0.0303	0.0288	0.8467	2.9718	-1.0657	13.9197	18.5700 
86.499	-0.0190	0.0381	0.8862	2.8674	-1.2195	14.0845	18.5800 
86.510	0.0107	0.0674	0.9155	2.7740	-1.3239	14.2163	18.5800 
86.511	0.0269	0.1001	0.9287	2.6862	-1.4008	14.2767	18.6000 
86.511	0.0396	0.1069	0.9561	2.5818	-1.4667	14.2767	18.6000 
86.511	0.0444	0.1206	0.9556	2.4829	-1.5326	14.2218	18.5800 
86.518	0.0498	0.1455	0.9839	2.4170	-1.6040	14.1449	18.5900 
86.532	0.0566	0.1709	1.0078	2.3621	-1.6699	14.0845	18.5700 
86.553	0.0693	0.2046	1.0205	2.3126	-1.7249	14.0186	18.5800 
86.576	0.0874	0.2183	1.0078	2.2797	-1.7798	13.9087	18.5700 
86.593	0.0728	0.2090	1.0254	2.2577	-1.8402	13.7439	18.5700 
86.682	0.0566	0.2036	1.0317	2.2687	-1.9336	13.5406	18.5600 
86.694	0.0347	0.1826	1.0259	2.3511	-2.0929	13.3594	18.5700 
86.694	0.0220	0.1797	1.0161	2.4225	-2.2742	13.2111	18.5600 
86.694	0.0503	0.2153	1.0098	2.4609	-2.4280	13.0463	18.5700 
86.701	0.1011	0.1929	1.0869	2.4280	-2.5488	12.7716	18.5700 
86.716	0.2314	0.1040	1.2080	2.3236	-2.7466	12.3376	18.5600 
86.737	0.2476	0.0073	1.3135	2.3126	-3.0487	11.8597	18.5600 
86.760	0.2881	-0.1108	1.2832	2.3456	-3.5046	11.4368	18.5600 
86.777	0.2686	-0.1265	1.2412	2.4774	-4.0210	11.2555	18.5600 
86.803	0.2290	-0.1416	1.1987	2.6038	-4.3726	11.2555	18.5600 
86.811	0.2417	-0.1460	1.1958	2.4335	-4.4714	11.1182	18.5700 
86.830	0.1899	-0.1021	1.2627	2.1204	-4.3121	10.8215	18.5700 
86.913	0.1309	-0.0562	1.1792	1.9556	-4.1693	10.6018	18.5700 
86.920	0.1133	0.0122	1.0342	2.0215	-4.0375	10.3876	18.5600 
86.920	0.1201	0.0151	0.8428	2.0929	-3.8617	10.2008	18.5500 
86.920	0.1143	-0.0171	0.7881	2.0819	-3.6584	10.0525	18.5600 
86.930	0.1128	-0.0537	0.7915	2.0050	-3.4277	9.9371	18.5600 
86.950	0.1138	-0.0366	0.8008	1.9611	-3.2190	9.8273	18.5500 
86.970	0.1299	0.0107	0.8330	1.9501	-3.0377	9.7339	18.5400 
86.991	0.1475	-0.0190	0.8882	1.8457	-2.8949	9.6899	18.5500 
87.013	0.1548	-0.0327	0.9673	1.6699	-2.7136	9.6515	18.5400 
87.096	0.1592	-0.0088	0.9858	1.4941	-2.5159	9.6185	18.5400 
87.104	0.1821	0.0703	0.9878	1.3788	-2.3566	9.6185	18.5500 
87.104	0.1899	0.1152	0.9873	1.2964	-2.2357	9.6185	18.5400 
87.105	0.1768	0.1270	1.0034	1.2469	-2.1149	9.5856	18.5400 
87.111	0.1572	0.1079	1.0200	1.2360	-1.9940	9.5361	18.5400 
87.131	0.1323	0.0913	1.0303	1.2634	-1.8787	9.5361	18.5500 
87.151	0.1318	0.0894	1.0342	1.3074	-1.7633	9.6240	18.5500 
87.173	0.1680	0.1045	1.0190	1.3568	-1.6534	9.8328	18.5300 
87.195	0.1875	0.1328	1.0161	1.4117	-1.5491	10.0745	18.5400 
87.216	0.2192	0.1973	1.0239	1.4557	-1.4612	10.2942	18.5400 
87.237	0.2358	0.2100	1.0122	1.5161	-1.4063	10.4425	18.5100 
87.248	0.2144	0.1821	0.9951	1.5930	-1.3788	10.4974	18.5300 
87.334	0.1641	0.1143	1.0127	1.7413	-1.3678	10.5139	18.5400 
87.343	0.0503	-0.0117	1.2378	1.9666	-1.3513	10.5634	18.5300 
87.343	0.0557	0.0874	1.3203	2.2961	-1.4172	10.6567	18.5300 
87.343	0.0889	0.1099	1.2368	2.6367	-1.4996	10.8325	18.5300 
87.349	-0.0049	0.0962	1.2090	2.7686	-1.3898	10.9204	18.5200 
87.367	-0.0498	0.0117	1.0366	2.6697	-1.1700	10.9424	18.5100 
87.387	-0.0635	-0.1313	1.0308	2.3676	-0.9723	10.9644	18.5100 
87.410	-0.1479	-0.2104	1.1987	2.0380	-0.8789	11.0522	18.5300 
87.431	-0.0806	-0.0820	1.2012	1.7688	-0.9613	11.2994	18.5300 
87.509	0.0439	-0.0161	1.1470	1.5161	-1.0547	11.7279	18.5100 
87.516	0.0723	0.0015	1.1055	1.3293	-1.1261	12.2278	18.5100 
87.517	0.1079	0.0586	0.9697	1.2250	-1.1975	12.6837	18.5000 
87.517	0.1187	0.0630	0.8784	1.1151	-1.3019	13.0847	18.5000 
87.526	0.0825	0.0688	0.8052	0.9833	-1.4337	13.3923	18.4900 
87.546	0.0620	0.0566	0.7881	0.8569	-1.5930	13.6066	18.4900 
87.566	0.0317	0.0190	0.8320	0.7306	-1.7468	13.7384	18.5100 
87.586	0.0146	0.0029	0.8745	0.6042	-1.8567	13.7988	18.5000 
87.612	0.0356	0.0186	0.8911	0.5054	-1.9391	13.8538	18.4900 
87.627	0.0664	0.0449	0.8892	0.4230	-2.0270	13.9362	18.4900 
87.650	0.0884	0.0820	0.9092	0.3571	-2.0929	14.0240	18.5000 
87.743	0.0767	0.0938	0.9395	0.2802	-2.0819	14.0295	18.5100 
87.750	0.0703	0.0962	0.9722	0.1868	-2.0160	13.9417	18.5000 
87.750	0.0654	0.1182	0.9878	0.0879	-1.9061	13.7604	18.5100 
87.750	0.0483	0.1270	1.0132	0.0000	-1.7578	13.5022	18.5000 
87.750	0.0483	0.1323	1.0815	-0.1154	-1.6260	13.2166	18.5000 
87.773	0.0474	0.1582	1.1016	-0.1813	-1.5491	12.9309	18.5100 
87.785	0.0483	0.1719	1.1152	-0.1868	-1.5326	12.6727	18.4700 
87.805	0.0391	0.1611	1.1284	-0.1593	-1.5381	12.4420	18.4700 
87.825	0.0361	0.1626	1.1074	-0.1044	-1.5875	12.2772	18.4800 
87.844	0.0596	0.1626	1.1035	-0.0549	-1.6809	12.1674	18.4700 
87.919	0.1519	0.1348	1.2056	-0.0549	-1.8622	12.0355	18.4900 
87.928	0.2231	0.1030	1.1963	0.0385	-2.1808	11.8872	18.4800 
87.928	0.1714	0.0083	1.2373	0.2911	-2.4939	11.6895	18.4900 
87.928	0.1943	-0.0361	1.1348	0.5548	-2.8674	11.5302	18.4700 
87.952	0.2310	-0.1104	1.1138	0.7471	-3.1750	11.5466	18.4900 
87.964	0.2603	-0.1880	1.0688	0.8295	-3.4937	11.7224	18.4800 
87.984	0.2349	-0.1943	1.1348	0.7031	-3.5815	11.6565	18.4700 
88.003	0.1807	-0.1807	1.2163	0.4614	-3.4497	11.3269	18.4800 
88.023	0.1001	-0.1230	1.2666	0.2362	-3.1696	10.8215	18.4900 
88.106	0.0835	-0.0420	1.1431	0.1208	-2.8784	10.3217	18.4800 
88.116	0.0928	-0.0273	0.9351	0.0714	-2.5928	9.9481	18.4700 
88.116	0.0986	-0.0483	0.8413	0.0549	-2.3456	9.6899	18.4600 
88.116	0.1108	-0.0503	0.7783	0.0989	-2.1808	9.5471	18.4700 
88.123	0.1050	-0.0522	0.7886	0.1593	-2.0325	9.4153	18.4800 
88.143	0.0825	-0.0337	0.8364	0.2362	-1.8677	9.2505	18.4500 
88.162	0.1045	-0.0288	0.8530	0.2637	-1.7249	9.1296	18.4700 
88.183	0.1377	-0.0200	0.8936	0.2087	-1.6150	9.0747	18.4500 
88.202	0.1514	-0.0142	0.9106	0.1208	-1.5051	9.0582	18.4500 
88.222	0.1772	0.0308	0.9380	0.0385	-1.4172	9.0802	18.4600 
88.244	0.1821	0.0576	0.9614	0.0000	-1.3898	9.1461	18.4700 
88.266	0.1787	0.0552	1.0049	-0.0330	-1.3843	9.2505	18.4600 
88.357	0.1714	0.0435	1.0215	-0.0714	-1.3458	9.3933	18.4500 
88.369	0.1528	0.0415	1.0332	-0.0769	-1.2634	9.5636	18.4500 
88.369	0.1538	0.0430	1.0508	-0.0220	-1.1536	9.7723	18.4500 
88.369	0.1548	0.0972	1.0786	0.0824	-1.0272	10.0085	18.4600 
88.369	0.1792	0.1699	1.0566	0.2417	-0.8899	10.2393	18.4600 
88.389	0.2461	0.2100	1.0239	0.3845	-0.7745	10.4150	18.4400 
88.411	0.2349	0.1494	1.0327	0.4669	-0.6592	10.4700	18.4500 
88.421	0.0825	0.0205	1.0908	0.5713	-0.5219	10.4370	18.4500 
88.441	-0.0015	-0.0332	1.2173	0.7745	-0.3900	10.4315	18.4500 
88.461	0.0054	0.0303	1.2520	1.1481	-0.3625	10.6183	18.4500 
88.545	0.0088	0.0464	1.1821	1.6370	-0.3845	10.9698	18.4500 
88.557	-0.0327	0.0542	1.1055	2.0599	-0.3790	11.4038	18.4600 
88.557	-0.0859	0.0288	1.0547	2.3291	-0.2966	11.7609	18.4400 
88.557	-0.0874	-0.0947	1.0728	2.2797	-0.1428	12.0081	18.4400 
88.564	-0.0957	-0.1084	1.1836	2.0544	0.0165	12.2717	18.4600 
88.580	-0.0234	-0.0171	1.2310	1.7249	0.1758	12.6398	18.4400 
88.599	0.0176	0.0073	1.1719	1.4172	0.3406	13.0792	18.4400 
88.619	0.0415	0.0000	1.1064	1.2140	0.4614	13.5626	18.4600 
88.643	0.0400	0.0220	0.9746	1.1151	0.5054	14.0240	18.4400 
88.728	0.0576	0.0527	0.8901	1.0876	0.4614	14.4910	18.4600 
88.736	0.0527	0.0928	0.8071	1.0986	0.3516	14.8975	18.4500 
88.736	0.0444	0.0952	0.7969	1.1316	0.1868	15.2051	18.4500 
88.736	0.0469	0.0688	0.8398	1.1206	0.0000	15.4083	18.4500 
88.742	0.0381	0.0547	0.8740	1.0657	-0.1538	15.5072	18.4300 
88.759	0.0371	0.0518	0.9023	0.9723	-0.2802	15.4907	18.4400 
88.779	0.0469	0.0747	0.9175	0.8734	-0.4010	15.4083	18.4400 
88.800	0.0527	0.0962	0.9414	0.7800	-0.5164	15.2875	18.4500 
88.820	0.0386	0.1030	0.9761	0.7196	-0.5988	15.1172	18.4500 
88.845	0.0186	0.1333	0.9927	0.6976	-0.6262	14.9194	18.4500 
88.858	0.0254	0.1426	0.9873	0.6757	-0.6482	14.7656	18.4300 
88.878	0.0410	0.1504	0.9946	0.6097	-0.6482	14.6228	18.4300 
88.957	0.0444	0.1650	1.0073	0.5219	-0.6482	14.4470	18.4300 
88.964	0.0503	0.1753	1.0352	0.4395	-0.6812	14.2273	18.4300 
88.964	0.0459	0.1621	1.0469	0.3571	-0.7690	14.0186	18.4200 
88.964	0.0171	0.1250	1.0845	0.2966	-0.8734	13.8208	18.4400 
88.978	0.0142	0.1157	1.0913	0.2197	-0.9448	13.6395	18.4300 
88.998	0.0210	0.1133	1.0894	0.1318	-0.9778	13.4528	18.4300 
89.017	0.0723	0.0601	1.1904	0.0110	-1.0162	13.2715	18.4300 
89.037	0.2021	0.0396	1.2388	-0.0275	-1.1920	13.0737	18.4200 
89.057	0.2227	-0.0117	1.2974	0.0659	-1.4502	12.8595	18.4200 
89.135	0.2544	-0.0635	1.2437	0.2472	-1.8018	12.6288	18.4300 
89.147	0.2520	-0.0381	1.1680	0.4504	-2.0764	12.4475	18.4200 
89.147	0.2139	-0.0532	1.1094	0.5438	-2.1259	12.1948	18.4300 
89.147	0.2051	-0.0942	1.0894	0.3900	-2.0160	11.7993	18.4500 
89.157	0.0923	-0.1572	1.1670	0.1538	-1.8347	11.2720	18.4300 
89.176	0.0352	-0.1411	1.1606	0.0275	-1.6754	10.6567	18.4200 
89.196	0.0278	-0.0571	1.0376	0.0055	-1.5381	10.0635	18.4400 
89.216	0.0571	-0.0371	0.9282	-0.0055	-1.4172	9.5856	18.4400 
89.236	0.0869	-0.0469	0.7993	-0.0055	-1.3293	9.2285	18.4200 
89.309	0.0996	-0.0435	0.7754	0.0439	-1.2964	8.9703	18.4200 
89.317	0.0977	-0.0352	0.8120	0.1208	-1.3074	8.7451	18.4300 
89.317	0.0933	-0.0396	0.8608	0.1703	-1.3074	8.5364	18.4100 
89.317	0.1104	-0.0552	0.9316	0.1154	-1.2305	8.3496	18.4000 
89.338	0.1270	-0.0474	0.9590	-0.0110	-1.0822	8.2068	18.4100 
89.362	0.1372	-0.0088	0.9785	-0.2197	-0.8899	8.1409	18.3800 
89.382	0.1587	0.0259	0.9873	-0.4120	-0.7196	8.1628	18.4100 
89.396	0.1743	0.0610	0.9951	-0.5713	-0.5548	8.2178	18.4200 
89.414	0.1709	0.0747	1.0034	-0.7031	-0.3845	8.2397	18.4000 
89.435	0.1372	0.0430	1.0298	-0.8020	-0.2142	8.2562	18.4100 
89.455	0.1084	0.0278	1.0488	-0.8624	-0.0494	8.3167	18.3900 
89.536	0.0840	0.0391	1.0381	-0.8350	0.1099	8.4814	18.4100 
89.543	0.0874	0.0786	1.0459	-0.7306	0.2966	8.7341	18.4000 
89.543	0.1533	0.1621	1.0493	-0.5768	0.5054	9.0582	18.4000 
89.543	0.1992	0.1787	1.0303	-0.4340	0.6976	9.3604	18.4000 
89.554	0.1973	0.1548	1.0181	-0.3461	0.8734	9.5251	18.4000 
89.574	0.0962	0.0127	1.0273	-0.2417	0.9998	9.6240	18.4000 
89.595	-0.0156	-0.1284	1.1558	0.0000	1.0822	9.8383	18.3900 
89.614	-0.0566	-0.0483	1.3184	0.4285	1.0657	10.2283	18.3900 
89.635	-0.0107	0.0415	1.2300	0.9558	0.9668	10.7776	18.3900 
89.657	-0.0601	0.0869	1.1924	1.2360	1.0382	11.2939	18.3900 
89.675	-0.0977	0.0815	1.0889	1.2524	1.2964	11.6455	18.3900 
89.699	-0.0977	-0.0996	1.0200	1.0382	1.5710	11.9257	18.4000 
89.773	-0.1489	-0.1934	1.1357	0.7581	1.7084	12.2278	18.4000 
89.785	-0.0679	-0.1064	1.1860	0.4669	1.6534	12.6453	18.4000 
89.785	-0.0112	-0.0425	1.1660	0.2087	1.5656	13.1671	18.3900 
89.785	0.0259	0.0024	1.0718	0.1154	1.4667	13.7054	18.4000 
89.793	0.0361	0.0210	0.9795	0.0879	1.3458	14.2328	18.4000 
89.813	0.0425	0.0371	0.8770	0.0494	1.2140	14.7052	18.3900 
89.833	0.0410	0.0449	0.8291	0.0055	1.0602	15.1337	18.3900 
89.852	0.0117	0.0449	0.7949	-0.0220	0.8954	15.4633	18.3800 
89.872	-0.0039	0.0430	0.8105	-0.0549	0.7526	15.6885	18.3700 
89.943	-0.0156	0.0078	0.8750	-0.1373	0.6317	15.8313	18.3900 
89.953	-0.0088	0.0020	0.9038	-0.2307	0.5219	15.9521	18.3700 
89.953	0.0225	0.0469	0.9268	-0.3131	0.4504	16.0455	18.3700 
89.959	0.0420	0.0928	0.9370	-0.3845	0.4120	16.1005	18.3900 
89.978	0.0449	0.1167	0.9580	-0.4285	0.3900	16.1169	18.3700 
89.999	0.0381	0.1191	0.9878	-0.4834	0.4065	16.0565	18.3700 
90.021	0.0181	0.1372	1.0059	-0.5603	0.4724	15.8972	18.3900 
90.031	0.0083	0.1387	1.0054	-0.6537	0.5493	15.6885	18.3700 
90.051	0.0186	0.1343	1.0142	-0.7251	0.5493	15.4688	18.3800 
90.071	0.0273	0.1182	1.0498	-0.7745	0.4340	15.2655	18.3600 
90.091	0.0161	0.1157	1.0703	-0.7526	0.2472	15.0677	18.3800 
90.175	0.0034	0.1172	1.0596	-0.6647	0.0275	14.8920	18.3700 
90.182	0.0024	0.1045	1.0850	-0.5823	-0.1868	14.7382	18.3700 
90.182	0.0239	0.0723	1.1704	-0.5658	-0.4175	14.5844	18.3600 
90.182	0.1694	0.0649	1.2891	-0.5493	-0.7581	14.4196	18.3700 
90.190	0.2173	0.0049	1.3477	-0.4010	-1.2689	14.3207	18.3800 
90.210	0.2603	-0.0259	1.3115	-0.1923	-1.8896	14.3042	18.3800 
90.230	0.2578	-0.0537	1.1655	0.1373	-2.5433	14.5239	18.3600 
90.250	0.1958	-0.0801	1.0508	0.3516	-2.9333	14.7217	18.3700 
90.271	0.2090	-0.1885	0.9966	0.2582	-3.0487	14.7437	18.3600 
90.360	0.1270	-0.1973	1.1763	-0.0330	-2.9114	14.5129	18.3600 
90.367	0.0864	-0.1821	1.1553	-0.2472	-2.6807	14.0240	18.3800 
90.367	0.0576	-0.0952	1.1387	-0.4065	-2.3621	13.4692	18.3700 
90.367	0.0854	-0.0815	1.0596	-0.5164	-2.1094	13.0682	18.3600 
90.373	0.1313	-0.0327	0.9282	-0.5273	-1.8842	12.7936	18.3800 
90.395	0.1548	-0.0127	0.8691	-0.4614	-1.6974	12.5958	18.3600 
90.415	0.1567	0.0000	0.8184	-0.3735	-1.5656	12.4200	18.3600 
90.435	0.1304	-0.0039	0.8232	-0.2911	-1.4337	12.1948	18.3600 
90.460	0.1035	-0.0332	0.8647	-0.2856	-1.2964	11.9147	18.3600 
90.548	0.1001	-0.0503	0.8896	-0.3241	-1.1426	11.6180	18.3700 
90.560	0.1060	-0.0371	0.9087	-0.4120	-0.9888	11.3818	18.3500 
90.561	0.1392	0.0088	0.9282	-0.5164	-0.8185	11.1951	18.3600 
90.561	0.1543	0.0273	0.9458	-0.6152	-0.6537	11.0303	18.3600 
90.561	0.1553	0.0586	0.9604	-0.6592	-0.5438	10.8765	18.3600 
90.568	0.1509	0.0498	0.9927	-0.6812	-0.4724	10.7666	18.3700 
90.588	0.1313	0.0352	1.0283	-0.6757	-0.3790	10.6842	18.3700 
90.608	0.1157	0.0386	1.0332	-0.6152	-0.2527	10.6458	18.3700 
90.628	0.1035	0.0713	1.0791	-0.4779	-0.0934	10.6787	18.3500 
90.648	0.1250	0.1338	1.1064	-0.3406	0.0769	10.7007	18.3600 
90.670	0.1885	0.1597	1.0415	-0.2472	0.2307	10.7007	18.3500 
90.691	0.1787	0.1123	1.0596	-0.1648	0.4010	10.6567	18.3600 
90.786	0.0957	0.0156	1.1123	0.0000	0.5383	10.6128	18.3600 
90.802	0.0044	-0.0522	1.2642	0.2472	0.6702	10.5963	18.3500 
90.802	0.0151	0.1055	1.2739	0.6537	0.7635	10.6732	18.3500 
90.802	0.0220	0.1279	1.1426	1.1206	0.8679	10.7941	18.3600 
90.802	-0.0767	0.0498	0.9814	1.4502	1.0712	10.8490	18.3600 
90.809	-0.1309	-0.0903	0.9873	1.5656	1.2689	10.8545	18.3500 
90.827	-0.1621	-0.2041	1.1699	1.4722	1.3184	10.8875	18.3400 
90.846	-0.1411	-0.1274	1.2607	1.3568	1.2524	11.0138	18.3500 
90.866	-0.0425	-0.0073	1.2104	1.2415	1.2140	11.2720	18.3400 
90.886	-0.0117	0.0078	1.1958	1.0931	1.2140	11.6016	18.3600 
90.966	0.0625	0.0239	1.0962	0.9448	1.1591	12.0026	18.3400 
90.976	0.0894	0.0552	0.9985	0.8075	1.0382	12.4310	18.3500 
90.976	0.0825	0.0747	0.8467	0.6757	0.8734	12.8265	18.3400 
90.976	0.0508	0.0742	0.7886	0.5383	0.7086	13.1561	18.3500 
90.986	0.0068	0.0488	0.7612	0.4230	0.5548	13.4088	18.3500 
91.005	-0.0039	0.0288	0.7832	0.3186	0.4230	13.6066	18.3600 
91.025	-0.0054	0.0288	0.8164	0.2307	0.3131	13.7494	18.3700 
91.045	0.0249	0.0313	0.8257	0.1263	0.2142	13.9032	18.3400 
91.064	0.0513	0.0781	0.9082	0.0439	0.1428	14.0350	18.3600 
91.151	0.0635	0.0654	0.9507	0.0275	0.0439	14.1943	18.3500 
91.163	0.0425	0.0435	1.0288	0.0934	-0.0439	14.3262	18.3700 
91.163	0.0259	0.0659	1.0234	0.2802	-0.1373	14.3591	18.3600 
91.164	0.0010	0.1201	0.9531	0.5713	-0.2307	14.3042	18.3400 
91.169	-0.0020	0.1060	1.0186	0.7800	-0.2582	14.1888	18.3400 
91.184	-0.0127	0.1187	1.1079	0.8954	-0.2911	14.0021	18.3500 
91.204	-0.0303	0.1426	1.1338	1.0547	-0.3131	13.7274	18.3400 
91.226	-0.0347	0.1670	1.0957	1.2964	-0.3571	13.3868	18.3500 
91.251	-0.0303	0.1689	1.0396	1.5710	-0.4340	13.0188	18.3600 
91.271	0.0151	0.1230	1.0889	1.8512	-0.5658	12.6672	18.3500 
91.295	0.1094	0.1401	1.1870	2.0984	-0.8240	12.3212	18.3300 
91.305	0.1846	0.0942	1.2402	2.4609	-1.2854	12.0081	18.3300 
91.384	0.2197	0.0527	1.3315	2.7905	-1.7578	11.6730	18.3300 
91.392	0.2847	0.0410	1.2686	3.0487	-2.2467	11.4148	18.3500 
91.392	0.2910	0.0249	1.1343	3.3014	-2.6752	11.2665	18.3500 
91.392	0.2930	-0.0068	1.0137	3.4607	-2.9938	11.2170	18.3400 
91.403	0.2114	-0.1401	1.0508	3.4003	-3.1311	11.1456	18.3400 
91.423	0.1050	-0.1685	1.1982	3.1805	-2.9828	10.8325	18.3200 
91.442	0.0674	-0.0610	1.1704	2.9828	-2.7301	10.3986	18.3500 
91.467	0.0879	0.0342	1.0957	2.8564	-2.4225	10.0415	18.3400 
91.482	0.1523	0.0259	0.8945	2.7246	-2.1698	9.8767	18.3400 
91.558	0.1597	0.0225	0.8325	2.5983	-1.9391	9.7064	18.3600 
91.570	0.1372	0.0181	0.8062	2.4609	-1.7029	9.4922	18.3500 
91.570	0.1035	0.0254	0.7954	2.3566	-1.4777	9.2175	18.3400 
91.570	0.0889	0.0225	0.8286	2.2412	-1.2634	8.9319	18.3400 
91.593	0.0952	0.0015	0.8730	2.0490	-1.0986	8.6902	18.3400 
91.602	0.1191	0.0078	0.9399	1.8127	-0.9723	8.5034	18.3400 
91.622	0.1348	0.0156	0.9590	1.5656	-0.8295	8.3276	18.3400 
91.642	0.1636	0.0425	0.9600	1.3019	-0.7141	8.2123	18.3200 
91.661	0.1641	0.0708	0.9692	1.1041	-0.6372	8.1683	18.3300 
91.681	0.1685	0.0791	1.0264	0.9338	-0.5823	8.1848	18.3200 
91.701	0.1655	0.0625	1.0518	0.8020	-0.5383	8.2343	18.3300 
91.802	0.1479	0.0547	1.0581	0.7471	-0.4724	8.3002	18.3400 
91.808	0.1416	0.0679	1.0518	0.7800	-0.3955	8.4210	18.3400 
91.808	0.1553	0.1055	1.0557	0.9119	-0.3296	8.6298	18.3200 
91.808	0.1724	0.1646	1.0659	1.0876	-0.2747	8.8605	18.3100 
91.808	0.2114	0.2070	1.0532	1.2909	-0.2307	9.0692	18.3100 
91.821	0.1997	0.1743	1.0405	1.4832	-0.1868	9.2230	18.3300 
91.840	0.1187	0.0645	1.1143	1.7303	-0.1703	9.3658	18.3200 
91.859	0.0464	-0.0342	1.2334	2.0819	-0.2307	9.5361	18.3200 
91.882	0.0400	0.1367	1.2695	2.4884	-0.2802	9.6460	18.3200 
91.900	0.0195	0.1221	1.1060	2.8894	-0.2802	9.8383	18.3300 
91.977	-0.0649	0.0825	0.9609	3.0927	-0.0934	10.0085	18.3100 
91.985	-0.0884	-0.0112	0.9346	3.0707	0.1538	10.1404	18.3200 
91.985	-0.1284	-0.1543	1.0933	2.8015	0.3735	10.2502	18.3100 
91.985	-0.1196	-0.1035	1.2275	2.4225	0.4779	10.4205	18.3200 
92.009	-0.0132	-0.0298	1.2617	2.0325	0.5273	10.6952	18.3200 
92.019	0.0020	-0.0093	1.2427	1.7358	0.5658	11.0138	18.3200 
92.039	0.0410	0.0464	1.1289	1.5930	0.5603	11.3489	18.3100 
92.059	0.0703	0.0869	1.0171	1.5051	0.4944	11.6675	18.3200 
92.079	0.0757	0.1040	0.8711	1.4282	0.3790	11.9147	18.3200 
92.099	0.0552	0.0869	0.7974	1.3623	0.1868	12.1234	18.3100 
92.119	0.0210	0.0571	0.7671	1.3074	-0.0439	12.2827	18.3100 
92.220	0.0015	0.0195	0.7939	1.2085	-0.2747	12.3651	18.3200 
92.226	-0.0020	-0.0122	0.8555	1.0217	-0.4395	12.4146	18.3100 
92.226	0.0166	0.0146	0.8672	0.8569	-0.5713	12.4695	18.3100 
92.226	0.0698	0.0688	0.8896	0.7141	-0.6812	12.5354	18.3100 
92.226	0.0791	0.0864	0.9229	0.5823	-0.7690	12.5629	18.3000 
92.238	0.0576	0.0781	0.9556	0.4559	-0.8350	12.5519	18.3000 
92.258	0.0513	0.0801	0.9717	0.3735	-0.9009	12.5464	18.3000 
92.278	0.0459	0.0747	0.9819	0.3296	-0.9778	12.5354	18.3000 
92.298	0.0371	0.1211	0.9976	0.3186	-1.0437	12.4805	18.3100 
92.317	0.0537	0.1704	1.0239	0.3296	-1.1481	12.3706	18.3000 
92.405	0.0576	0.1768	1.0586	0.3680	-1.3403	12.2498	18.2900 
92.417	0.0483	0.1558	1.0923	0.3900	-1.5656	12.0959	18.3000 
92.417	0.0425	0.1289	1.0991	0.4449	-1.8018	11.9366	18.3000 
92.417	0.0498	0.1167	1.1016	0.4944	-2.0709	11.8268	18.3100 
92.423	0.0815	0.0767	1.2051	0.5273	-2.3566	11.7883	18.2900 
92.438	0.1704	0.0796	1.3203	0.5878	-2.7466	11.7609	18.2900 
92.459	0.2285	0.0859	1.2954	0.7196	-3.2135	11.7499	18.2900 
92.483	0.2563	0.0552	1.2383	0.7855	-3.5596	11.7499	18.2900 
92.504	0.2646	-0.0347	1.1528	0.9229	-3.9221	11.8323	18.3000 
92.589	0.2554	-0.1377	1.0562	1.0876	-4.3341	12.0575	18.2900 
92.598	0.2505	-0.1719	1.1035	1.0602	-4.4769	12.0465	18.3000 
92.598	0.2241	-0.1919	1.1343	0.9393	-4.4220	11.7938	18.2900 
92.598	0.1377	-0.1729	1.2192	0.7745	-4.1473	11.3049	18.3000 
92.604	0.1060	-0.0820	1.2407	0.6097	-3.7683	10.7611	18.2800 
92.623	0.1279	-0.0239	1.0464	0.5383	-3.4277	10.3986	18.3000 
92.644	0.1460	-0.0239	0.9097	0.5328	-3.1476	10.1788	18.3000 
92.666	0.1523	-0.0098	0.7964	0.5658	-2.8784	9.9866	18.2800 
92.676	0.1367	-0.0068	0.7725	0.6207	-2.6093	9.7284	18.2900 
92.697	0.1035	-0.0068	0.7949	0.6757	-2.3401	9.3768	18.2800 
92.715	0.1011	-0.0381	0.8218	0.6592	-2.0874	8.9868	18.2900 
92.735	0.1162	-0.0210	0.8921	0.5823	-1.8292	8.5529	18.2900 
92.822	0.1416	-0.0342	0.9092	0.4120	-1.5930	8.1958	18.2900 
92.827	0.1572	-0.0234	0.9668	0.1758	-1.3458	7.9102	18.3000 
92.827	0.1611	0.0010	0.9844	0.0220	-1.1591	7.6740	18.2800 
92.827	0.1567	0.0493	0.9956	0.0110	-1.0217	7.4707	18.2700 
92.834	0.1641	0.0493	1.0088	0.0385	-0.9174	7.3279	18.2700 
92.855	0.1465	0.0518	1.0098	0.1263	-0.8350	7.2565	18.2800 
92.876	0.1328	0.0605	1.0093	0.2637	-0.7416	7.2400	18.2900 
92.899	0.1294	0.0811	1.0313	0.4230	-0.6427	7.2784	18.2700 
92.919	0.1406	0.1133	1.0464	0.5988	-0.5493	7.3608	18.2600 
93.005	0.1963	0.1738	1.0049	0.7690	-0.4834	7.4762	18.2800 
93.013	0.2158	0.1792	0.9868	0.9448	-0.4285	7.5806	18.2800 
93.013	0.1782	0.1235	0.9922	1.1206	-0.3900	7.6355	18.2800 
93.013	0.1167	0.0596	1.0186	1.3293	-0.3351	7.6465	18.2900 
93.020	0.0117	-0.0151	1.2158	1.5765	-0.2527	7.6740	18.2900 
93.038	0.0488	0.0664	1.2925	1.8842	-0.2087	7.7728	18.3000 
93.059	0.0669	0.1040	1.2627	2.2577	-0.2362	7.9980	18.2700 
93.081	0.0200	0.1099	1.2080	2.5543	-0.1868	8.2068	18.2900 
93.102	-0.0947	0.0654	1.0889	2.6917	-0.0330	8.3167	18.2800 
93.199	-0.1045	-0.0391	1.0391	2.6367	0.1483	8.3661	18.2800 
93.211	-0.1548	-0.1421	1.1450	2.3566	0.3241	8.3936	18.2900 
93.211	-0.1001	-0.1030	1.1631	1.9830	0.4395	8.5089	18.2700 
93.211	-0.0361	-0.0596	1.1333	1.6095	0.5054	8.7616	18.2800 
93.211	-0.0205	-0.0459	1.1162	1.3074	0.5383	9.0308	18.2800 
93.217	0.0098	-0.0186	1.0674	1.0767	0.5109	9.2834	18.2800 
93.232	0.0391	0.0449	0.9463	0.9119	0.4449	9.5032	18.2600 
93.254	0.0420	0.0615	0.8823	0.7690	0.3461	9.6460	18.2700 
93.276	0.0171	0.0425	0.8262	0.6702	0.1868	9.7229	18.2700 
93.298	-0.0054	0.0317	0.8423	0.5548	-0.0055	9.7394	18.2800 
93.385	-0.0132	-0.0127	0.8838	0.3955	-0.2142	9.7504	18.2800 
93.397	-0.0015	-0.0171	0.9019	0.2527	-0.4065	9.7888	18.2600 
93.397	0.0356	0.0371	0.9092	0.1483	-0.6042	9.8492	18.2800 
93.397	0.0552	0.0688	0.9248	0.0714	-0.8075	9.9097	18.2800 
93.398	0.0679	0.0796	0.9434	0.0055	-1.0162	9.9701	18.2600 
93.417	0.0640	0.0864	0.9517	-0.0439	-1.2030	10.0031	18.2800 
93.441	0.0571	0.0801	0.9614	-0.0934	-1.3623	10.0195	18.2600 
93.460	0.0576	0.0776	0.9604	-0.1483	-1.4941	10.0140	18.2800 
93.470	0.0586	0.0933	0.9443	-0.1703	-1.6150	9.9811	18.2700 
93.490	0.0444	0.0801	0.9790	-0.1813	-1.7578	9.9481	18.2700 
93.510	0.0605	0.0767	1.0488	-0.1703	-1.9666	9.9261	18.2700 
93.530	0.0762	0.1006	1.0498	-0.1208	-2.1918	9.8987	18.2800 
93.550	0.0728	0.1294	1.0610	-0.0439	-2.3840	9.8712	18.2800 
93.626	0.0796	0.1431	1.0552	0.0659	-2.5763	9.8767	18.2600 
93.634	0.1011	0.1475	1.0508	0.2032	-2.7795	9.9316	18.2600 
93.634	0.1240	0.1250	1.1084	0.3131	-2.9553	9.9426	18.2500 
93.634	0.2012	0.0918	1.2178	0.4230	-3.1805	9.8932	18.2500 
93.659	0.1938	0.0581	1.2568	0.6262	-3.4827	9.8438	18.2600 
93.669	0.2368	-0.0063	1.2305	0.8240	-3.7848	9.7559	18.2700 
93.689	0.2642	-0.0845	1.2251	0.9503	-4.0704	9.7284	18.2700 
93.710	0.2646	-0.1108	1.1782	1.1426	-4.3561	9.8328	18.2600 
93.729	0.2578	-0.1035	1.1880	1.2634	-4.5319	9.8987	18.2800 
93.803	0.2344	-0.1108	1.2056	1.2469	-4.5428	9.8163	18.2600 
93.815	0.1670	-0.1260	1.2358	1.1426	-4.3835	9.6021	18.2500 
93.815	0.0884	-0.0786	1.1689	1.0602	-4.1254	9.2889	18.2500 
93.825	0.0757	-0.0522	1.0371	1.0052	-3.8123	9.0033	18.2600 
93.836	0.0850	-0.0356	0.8584	0.9833	-3.4827	8.8330	18.2700 
93.859	0.1021	-0.0498	0.8027	0.9558	-3.2135	8.8000	18.2700 
93.869	0.1118	-0.0503	0.7856	0.9393	-3.0157	8.8110	18.2700 
93.888	0.0977	-0.0527	0.8164	0.9229	-2.8674	8.8000	18.2600 
93.908	0.0952	-0.0796	0.8838	0.9009	-2.7576	8.7836	18.2600 
93.927	0.1035	-0.1060	0.9307	0.8679	-2.6807	8.8275	18.2500 
93.948	0.1245	-0.0693	0.9517	0.8569	-2.6257	8.9484	18.2400 
94.035	0.1528	-0.0288	0.9600	0.8459	-2.5488	9.1406	18.2500 
94.041	0.1904	0.0225	0.9702	0.8185	-2.4774	9.3658	18.2400 
94.041	0.1909	0.0405	0.9751	0.8185	-2.4335	9.6021	18.2300 
94.041	0.1807	0.0269	1.0063	0.8350	-2.4335	9.8657	18.2500 
94.048	0.1738	0.0225	1.0132	0.8734	-2.4554	10.1678	18.2600 
94.067	0.1689	0.0254	1.0088	0.9613	-2.5049	10.5743	18.2400 
94.090	0.1777	0.0430	1.0005	1.0767	-2.5378	11.0577	18.2400 
94.110	0.1865	0.0684	0.9897	1.2360	-2.5653	11.6071	18.2400 
94.133	0.1958	0.0864	0.9941	1.4172	-2.5983	12.2278	18.2400 
94.222	0.2178	0.1089	1.0063	1.5765	-2.6147	12.8650	18.2500 
94.230	0.2407	0.1299	1.0229	1.7249	-2.6257	13.4967	18.2400 
94.230	0.2402	0.1431	1.0073	1.8896	-2.6312	14.1010	18.2400 
94.230	0.2256	0.1313	0.9761	2.0544	-2.6038	14.6942	18.2400 
94.231	0.1948	0.0801	0.9917	2.2137	-2.5598	15.3204	18.2500 
94.251	0.1182	-0.0117	1.1494	2.3346	-2.4664	15.9961	18.2400 
94.277	0.1226	0.0342	1.2368	2.4994	-2.3895	16.7322	18.2300 
94.285	0.1162	0.0552	1.3765	2.6862	-2.2906	17.5287	18.2500 
94.305	0.0869	0.1162	1.4038	2.8400	-2.1368	18.2648	18.2400 
94.325	-0.0288	0.1572	1.2305	2.9279	-1.8347	18.9294	18.2400 
94.401	-0.0596	0.0854	1.0742	2.9608	-1.4502	19.5172	18.2400 
94.408	-0.0898	-0.1445	1.0767	2.7850	-1.0986	20.0995	18.2400 
94.408	-0.1099	-0.1753	1.1172	2.5488	-0.8020	20.6543	18.2600 
94.408	-0.0620	-0.0566	1.0894	2.3456	-0.5603	21.2036	18.2300 
94.435	-0.0420	0.0000	1.0361	2.2302	-0.3516	21.7474	18.2500 
94.445	-0.0161	0.0415	0.9829	2.1698	-0.1263	22.1155	18.2400 
94.464	-0.0166	0.0381	0.9351	2.1094	0.0879	22.3352	18.2300 
94.484	-0.0425	-0.0044	0.9053	2.0050	0.2472	22.4066	18.2400 
94.503	-0.0903	-0.0264	0.9019	1.9006	0.3516	22.3682	18.2300 
94.524	-0.1201	-0.0566	0.9580	1.8292	0.4285	22.2638	18.2400 
94.544	-0.0962	-0.0435	1.0029	1.7963	0.4944	22.1814	18.2300 
94.636	-0.0610	0.0005	1.0127	1.7743	0.5713	22.1045	18.2300 
94.643	-0.0488	0.0200	1.0024	1.7194	0.6647	21.9946	18.2400 
94.643	-0.0405	0.0225	0.9927	1.6370	0.7910	21.8079	18.2300 
94.643	-0.0557	0.0068	1.0073	1.5216	0.9448	21.5002	18.2200 
94.650	-0.0947	-0.0093	1.0054	1.4008	1.1041	21.1047	18.2200 
94.669	-0.1016	-0.0088	0.9897	1.3129	1.2469	20.6598	18.2100 
94.692	-0.0869	0.0024	0.9819	1.2305	1.3733	20.1874	18.2300 
94.713	-0.0747	0.0103	0.9736	1.1700	1.4557	19.6820	18.2200 
94.723	-0.0625	0.0137	0.9443	1.1481	1.4832	19.1107	18.2300 
94.742	-0.0635	0.0059	0.9448	1.1646	1.4447	18.4845	18.2300 
94.819	-0.0479	-0.0137	0.9844	1.1975	1.3348	17.8583	18.2300 
94.828	-0.0317	0.0044	0.9932	1.2689	1.1920	17.2705	18.2300 
94.828	0.0229	0.0034	1.1660	1.3019	1.0767	16.7377	18.2300 
94.828	0.1284	0.0522	1.2529	1.1810	0.9448	16.1993	18.2400 
94.851	0.2007	0.1021	1.1006	1.2415	0.6976	15.7379	18.2300 
94.862	0.1470	0.0649	1.0244	1.4777	0.4230	15.2600	18.2200 
94.881	0.0859	-0.0073	0.9824	1.6974	0.1428	14.8041	18.2300 
94.902	0.0850	-0.0093	1.0068	1.8292	-0.0934	14.3976	18.2300 
94.922	0.1069	0.0532	1.0332	1.9446	-0.2582	14.0900	18.2100 
94.941	0.1089	0.0718	1.0664	2.0105	-0.3790	13.8263	18.2100 
94.961	0.1294	0.0317	1.1196	2.0050	-0.4614	13.5791	18.2000 
95.057	0.1313	0.0332	1.0967	1.9501	-0.4944	13.3154	18.2100 
95.063	0.1240	0.0444	1.0439	1.8842	-0.4449	12.9968	18.2200 
95.063	0.1113	0.0532	0.9932	1.8073	-0.3735	12.6617	18.2000 
95.063	0.1050	0.0654	0.9814	1.7358	-0.3021	12.3267	18.2100 
95.063	0.1177	0.0356	1.0112	1.6315	-0.2527	12.0355	18.2000 
95.081	0.1162	0.0186	1.0444	1.4832	-0.2032	11.8213	18.2000 
95.100	0.1138	0.0044	1.0679	1.3074	-0.1263	11.6785	18.2100 
95.120	0.1133	0.0244	1.0464	1.1810	-0.0385	11.5851	18.2000 
95.140	0.1157	0.0400	1.0249	1.0931	0.0330	11.5302	18.2000 
95.160	0.1035	0.0488	1.0210	1.0107	0.0879	11.4752	18.2000 
95.233	0.1045	0.0581	1.0259	0.9448	0.1373	11.4038	18.2000 
95.242	0.1108	0.0615	1.0273	0.8350	0.1978	11.3159	18.2100 
95.243	0.1377	0.0601	1.0454	0.6976	0.2637	11.1786	18.2000 
95.243	0.1426	0.0596	1.0469	0.5493	0.3296	10.9863	18.2000 
95.266	0.1079	0.0474	1.0454	0.4010	0.4065	10.6842	18.2000 
95.289	0.0752	0.0200	1.0435	0.2747	0.4779	10.3162	18.1900 
95.299	0.0088	0.0078	1.0313	0.2087	0.5328	9.9152	18.2000 
95.319	0.0112	-0.0020	0.9951	0.1923	0.5273	9.6240	18.1900 
95.338	0.0566	-0.0078	1.0049	0.1703	0.4669	9.5197	18.2000 
95.411	0.0967	0.0063	1.0259	0.0879	0.4340	9.4427	18.1900 
95.422	0.1055	0.0439	1.0439	0.0000	0.4230	9.3109	18.1900 
95.422	0.0889	0.0449	1.0283	-0.0220	0.3571	9.2120	18.1800 
95.429	0.0659	0.0601	1.0088	0.0110	0.2527	9.1516	18.1800 
95.443	0.0591	0.0459	1.0112	0.0385	0.1428	9.1241	18.2000 
95.465	0.0830	0.0264	1.0425	0.0330	0.0275	9.1901	18.1900 
95.487	0.0864	0.0298	1.0425	0.0275	-0.0879	9.3164	18.1900 
95.509	0.0840	0.0381	1.0337	0.0494	-0.1868	9.4812	18.1900 
95.517	0.0854	0.0405	1.0303	0.0824	-0.2692	9.6625	18.2000 
95.538	0.0894	0.0498	1.0327	0.1263	-0.3461	9.8657	18.1900 
95.558	0.1030	0.0679	1.0190	0.2087	-0.4340	10.0800	18.1700 
95.635	0.1108	0.0718	1.0225	0.3186	-0.5548	10.2997	18.1800 
95.642	0.1147	0.0518	1.0449	0.3955	-0.6812	10.5084	18.1900 
95.642	0.1104	0.0527	1.0439	0.4779	-0.7965	10.6897	18.1800 
95.642	0.1069	0.0688	1.0293	0.5768	-0.8789	10.8435	18.1900 
95.657	0.1050	0.0737	1.0254	0.6757	-0.9503	11.0028	18.1700 
95.677	0.1050	0.0654	1.0361	0.7471	-1.0162	11.1731	18.1900 
95.696	0.1133	0.0605	1.0449	0.7910	-1.0602	11.3379	18.2000 
95.725	0.1113	0.0679	1.0454	0.8240	-1.0767	11.4807	18.1900 
95.738	0.1108	0.0918	1.0225	0.8734	-1.0657	11.5961	18.2000 
95.811	0.1064	0.0771	1.0166	0.9119	-1.0602	11.6949	18.1900 
95.818	0.0928	0.0532	1.0220	0.9174	-1.0547	11.7719	18.2000 
95.818	0.0820	0.0532	1.0288	0.9229	-1.0382	11.8323	18.2000 
95.818	0.0806	0.0547	1.0327	0.9448	-1.0382	11.8817	18.1900 
95.842	0.0845	0.0640	1.0322	0.9778	-1.0437	11.9312	18.2000 
95.865	0.0874	0.0698	1.0298	0.9943	-1.0382	11.9751	18.1900 
95.876	0.0903	0.0615	1.0269	0.9888	-1.0162	12.0081	18.2000 
95.896	0.0962	0.0669	1.0264	0.9613	-0.9668	12.0300	18.1900 
95.916	0.0869	0.0708	1.0273	0.9338	-0.9174	12.0520	18.2000 
95.935	0.0815	0.0742	1.0332	0.9283	-0.8844	12.0795	18.1900 
95.955	0.0840	0.0640	1.0269	0.9229	-0.8624	12.1234	18.2000 
96.054	0.0894	0.0508	1.0234	0.9064	-0.8569	12.1838	18.2100 
96.061	0.0830	0.0483	1.0298	0.8899	-0.8405	12.2333	18.1800 
96.061	0.0845	0.0566	1.0269	0.8899	-0.8295	12.2772	18.1900 
96.061	0.0859	0.0591	1.0298	0.8899	-0.8075	12.3212	18.1900 
96.061	0.0854	0.0537	1.0391	0.8844	-0.7910	12.3541	18.1900 
96.075	0.0820	0.0513	1.0371	0.8899	-0.7690	12.3871	18.1900 
96.094	0.0815	0.0596	1.0386	0.9064	-0.7416	12.4146	18.1900 
96.115	0.0850	0.0562	1.0278	0.9283	-0.7306	12.4475	18.2000 
96.134	0.0820	0.0552	1.0278	0.9393	-0.7031	12.4860	18.2000 
96.153	0.0757	0.0498	1.0244	0.9448	-0.6647	12.5134	18.2000 
96.238	0.0674	0.0483	1.0205	0.9613	-0.6262	12.5299	18.2000 
96.246	0.0615	0.0601	1.0244	0.9833	-0.5933	12.5574	18.2000 
96.246	0.0732	0.0664	1.0283	1.0052	-0.5768	12.5903	18.2100 
96.247	0.0742	0.0674	1.0366	1.0162	-0.5658	12.6453	18.2100 
96.253	0.0718	0.0684	1.0352	1.0272	-0.5713	12.7112	18.2000 
96.272	0.0674	0.0571	1.0293	1.0382	-0.5823	12.7826	18.2200 
96.294	0.0620	0.0557	1.0293	1.0492	-0.5933	12.8705	18.2100 
96.319	0.0791	0.0562	1.0356	1.0547	-0.6097	12.9803	18.2000 
96.339	0.0918	0.0493	1.0347	1.0382	-0.6372	13.1012	18.2100 
96.362	0.0957	0.0620	1.0259	1.0162	-0.6592	13.1891	18.2000 
96.383	0.0874	0.0757	1.0225	1.0107	-0.6812	13.2605	18.2100 
96.393	0.0747	0.0581	1.0361	0.9888	-0.6866	13.3154	18.1900 
96.478	0.0684	0.0542	1.0396	0.9613	-0.6812	13.3649	18.2000 
96.485	0.0659	0.0654	1.0459	0.9393	-0.6482	13.4088	18.1900 
96.485	0.0645	0.0762	1.0356	0.9338	-0.6152	13.4473	18.2100 
96.485	0.0630	0.0918	1.0190	0.9283	-0.5878	13.4857	18.1900 
96.492	0.0532	0.1006	1.0166	0.9229	-0.5493	13.4857	18.1900 
96.512	0.0479	0.0991	1.0142	0.8954	-0.5219	13.4308	18.2000 
96.532	0.0444	0.0879	1.0200	0.8624	-0.5219	13.3429	18.2100 
96.552	0.0371	0.0698	1.0225	0.8185	-0.5548	13.2605	18.2100 
96.574	0.0527	0.0610	1.0244	0.7581	-0.6152	13.2111	18.2000 
96.659	0.0791	0.0581	1.0474	0.6866	-0.6757	13.1946	18.2000 
96.671	0.0933	0.0679	1.0405	0.6207	-0.7416	13.2056	18.2000 
96.671	0.1113	0.0757	1.0225	0.5603	-0.8075	13.2495	18.2000 
96.671	0.1133	0.0630	1.0249	0.4944	-0.8844	13.3099	18.2200 
96.677	0.1079	0.0381	1.0298	0.4230	-0.9613	13.3813	18.2200 
96.693	0.1030	0.0313	1.0356	0.3461	-1.0217	13.4253	18.2000 
96.717	0.1084	0.0229	1.0308	0.2692	-1.0602	13.4363	18.2000 
96.736	0.1079	0.0254	1.0249	0.1978	-1.1041	13.4198	18.2100 
96.755	0.1001	0.0322	1.0298	0.1483	-1.1261	13.3594	18.2000 
96.860	0.0977	0.0259	1.0381	0.1154	-1.1426	13.2880	18.2000 
96.866	0.0947	0.0117	1.0464	0.1044	-1.1481	13.2385	18.2200 
96.866	0.0986	0.0220	1.0439	0.1263	-1.1426	13.2275	18.2200 
96.866	0.1089	0.0342	1.0352	0.1813	-1.1426	13.2715	18.2100 
96.866	0.1221	0.0459	1.0293	0.2362	-1.1371	13.3484	18.2000 
96.872	0.1230	0.0361	1.0313	0.2747	-1.1261	13.4308	18.2000 
96.890	0.1089	0.0352	1.0376	0.2856	-1.0931	13.4747	18.2100 
96.916	0.0996	0.0366	1.0273	0.2966	-1.0492	13.4967	18.2000 
96.939	0.0889	0.0259	1.0205	0.3021	-1.0162	13.5132	18.2000 
96.950	0.0889	0.0259	1.0308	0.3076	-0.9833	13.5297	18.1900 
97.049	0.0972	0.0386	1.0376	0.3296	-0.9558	13.5571	18.2200 
97.059	0.1060	0.0474	1.0352	0.3625	-0.9338	13.6011	18.2300 
97.059	0.1079	0.0474	1.0244	0.4065	-0.9119	13.6505	18.2200 
97.059	0.0991	0.0410	1.0239	0.4395	-0.8844	13.7109	18.2100 
97.059	0.0918	0.0405	1.0205	0.4724	-0.8569	13.7659	18.2300 
97.068	0.0942	0.0410	1.0229	0.4999	-0.8350	13.8263	18.2300 
97.088	0.0972	0.0415	1.0308	0.5109	-0.8075	13.8867	18.2200 
97.108	0.0947	0.0449	1.0298	0.5219	-0.7800	13.9362	18.2200 
97.128	0.0918	0.0386	1.0298	0.5328	-0.7581	13.9966	18.2200 
97.147	0.0898	0.0469	1.0415	0.5438	-0.7361	14.0680	18.2200 
97.168	0.1045	0.0513	1.0474	0.5548	-0.7086	14.1669	18.2300 
97.190	0.1118	0.0610	1.0415	0.5713	-0.6812	14.2603	18.2200 
97.276	0.1006	0.0718	1.0278	0.5878	-0.6482	14.3207	18.2300 
97.282	0.0908	0.0557	1.0225	0.5988	-0.6207	14.3701	18.2200 
97.282	0.0815	0.0322	1.0195	0.6042	-0.5988	14.4250	18.2300 
97.282	0.0669	0.0371	1.0454	0.6207	-0.5823	14.4800	18.2200 
97.288	0.0898	0.0454	1.0244	0.6647	-0.5988	14.5624	18.2200 
97.313	0.0898	0.0591	1.0386	0.6921	-0.5823	14.6338	18.2300 
97.331	0.0952	0.0562	1.0386	0.7196	-0.5548	14.6832	18.2300 
97.353	0.1030	0.0425	1.0405	0.7361	-0.5383	14.7382	18.2400 
97.366	0.0889	0.0620	1.0269	0.7635	-0.5493	14.7766	18.2400 
97.455	0.0781	0.0576	1.0234	0.7965	-0.5713	14.7986	18.2600 
97.466	0.0762	0.0293	1.0283	0.8185	-0.5933	14.8260	18.2500 
97.466	0.0776	0.0386	1.0283	0.8350	-0.5988	14.8590	18.2400 
97.467	0.0815	0.0522	1.0254	0.8569	-0.5988	14.8920	18.2500 
97.475	0.0830	0.0532	1.0308	0.8789	-0.6097	14.9194	18.2500 
97.490	0.0898	0.0557	1.0366	0.8954	-0.6207	14.9414	18.2400 
97.509	0.0913	0.0479	1.0371	0.8899	-0.6372	14.9689	18.2500 
97.531	0.0874	0.0410	1.0298	0.8789	-0.6592	14.9963	18.2300 
97.556	0.0840	0.0449	1.0229	0.8679	-0.6757	15.0238	18.2400 
97.573	0.0801	0.0400	1.0200	0.8679	-0.6921	15.0403	18.2400 
97.595	0.0825	0.0376	1.0249	0.8624	-0.7251	15.0677	18.2600 
97.606	0.0869	0.0371	1.0444	0.8624	-0.7635	15.1062	18.2400 
97.690	0.0947	0.0366	1.0454	0.8514	-0.8075	15.1501	18.2300 
97.696	0.0928	0.0483	1.0356	0.8514	-0.8350	15.1666	18.2500 
97.696	0.0889	0.0518	1.0269	0.8514	-0.8624	15.1721	18.2600 
97.696	0.0879	0.0425	1.0273	0.8514	-0.8844	15.1666	18.2500 
97.708	0.0894	0.0449	1.0288	0.8514	-0.9009	15.1611	18.2600 
97.729	0.0894	0.0483	1.0361	0.8514	-0.9064	15.1556	18.2500 
97.746	0.0889	0.0503	1.0366	0.8459	-0.9119	15.1501	18.2600 
97.766	0.0854	0.0469	1.0332	0.8405	-0.9119	15.1501	18.2400 
97.791	0.0845	0.0444	1.0342	0.8350	-0.9119	15.1556	18.2500 
97.871	0.0903	0.0391	1.0356	0.8130	-0.9119	15.1776	18.2500 
97.878	0.0894	0.0459	1.0361	0.8020	-0.8954	15.1996	18.2700 
97.878	0.0889	0.0464	1.0366	0.7965	-0.8734	15.2216	18.2600 
97.878	0.0908	0.0430	1.0352	0.7855	-0.8514	15.2490	18.2600 
97.884	0.0898	0.0479	1.0347	0.7855	-0.8240	15.2765	18.2700 
97.903	0.0908	0.0479	1.0317	0.7745	-0.7965	15.2930	18.2700 
97.927	0.0859	0.0439	1.0322	0.7690	-0.7635	15.3149	18.2600 
97.947	0.0796	0.0322	1.0317	0.7690	-0.7306	15.3424	18.2600 
97.969	0.0767	0.0405	1.0303	0.7690	-0.7031	15.3864	18.2600 
97.992	0.0742	0.0386	1.0308	0.7745	-0.6812	15.4413	18.2800 
98.003	0.0713	0.0308	1.0278	0.7800	-0.6647	15.4962	18.2600 
98.022	0.0728	0.0430	1.0298	0.7800	-0.6317	15.5402	18.2600 
98.123	0.0781	0.0532	1.0337	0.7910	-0.6042	15.5896	18.2600 
98.130	0.0918	0.0435	1.0366	0.7965	-0.5988	15.6555	18.2500 
98.130	0.0928	0.0400	1.0352	0.8075	-0.6152	15.7159	18.2700 
98.130	0.0825	0.0361	1.0313	0.8240	-0.6317	15.7599	18.2800 
98.130	0.0737	0.0239	1.0352	0.8405	-0.6427	15.8038	18.2800 
98.142	0.0723	0.0220	1.0229	0.8789	-0.6537	15.8698	18.2600 
98.161	0.0659	0.0371	1.0303	0.9393	-0.6702	15.9521	18.2600 
98.181	0.1040	0.0171	1.0229	0.9998	-0.7306	16.0785	18.2800 
98.201	0.0938	0.0420	1.0498	1.0327	-0.7635	16.2268	18.2800 
98.221	0.1021	0.0322	1.0400	1.0657	-0.7745	16.3806	18.2600 
98.303	0.1104	0.0259	1.0342	1.0876	-0.7965	16.5729	18.2900 
98.313	0.1064	0.0332	1.0293	1.1261	-0.8295	16.7706	18.2800 
98.314	0.0942	0.0288	1.0317	1.1700	-0.8514	16.9684	18.3000 
98.314	0.0923	0.0127	1.0356	1.2140	-0.8789	17.1826	18.3000 
98.321	0.0947	0.0132	1.0356	1.2469	-0.9009	17.4408	18.2800 
98.340	0.1074	0.0264	1.0352	1.2799	-0.9064	17.7374	18.3000 
98.361	0.1108	0.0327	1.0361	1.3184	-0.9009	18.0505	18.2800 
98.380	0.1050	0.0298	1.0371	1.3513	-0.8734	18.3856	18.2800 
98.400	0.1040	0.0190	1.0371	1.3678	-0.8350	18.7482	18.2900 
98.491	0.1050	0.0068	1.0327	1.3568	-0.7910	19.1547	18.3000