StartTime: 2018-11-23 19:07:01.106
Time(s)	ax(g)	ay(g)	az(g)	AngleX(deg)	AngleY(deg)	AngleZ(deg)	T(Â°) 
508.500	-0.0107	0.0132	1.0181	-0.1373	3.6310	-15.5621	27.8800 
508.520	-0.0083	0.0244	1.0273	-0.1593	3.6365	-15.5841	27.8800 
508.540	-0.0093	0.0234	1.0288	-0.1813	3.6365	-15.6171	27.9000 
508.560	-0.0088	0.0190	1.0288	-0.2087	3.6420	-15.6500	27.8700 
508.579	-0.0103	0.0215	1.0332	-0.2417	3.6475	-15.6775	27.8600 
508.600	-0.0112	0.0239	1.0249	-0.2637	3.6475	-15.7050	27.8800 
508.620	-0.0127	0.0205	1.0225	-0.2966	3.6475	-15.7269	27.8900 
508.683	-0.0142	0.0132	1.0234	-0.3351	3.6475	-15.7489	27.9000 
508.689	-0.0127	0.0176	1.0254	-0.3845	3.6530	-15.7764	27.8800 
508.689	-0.0127	0.0186	1.0303	-0.4395	3.6639	-15.8258	27.8800 
508.699	-0.0151	0.0220	1.0293	-0.5219	3.6694	-15.8807	27.8700 
508.719	-0.0127	0.0205	1.0283	-0.6152	3.6804	-15.9357	27.8800 
508.739	-0.0083	0.0112	1.0205	-0.7031	3.6914	-15.9686	27.8700 
508.760	-0.0171	0.0068	1.0234	-0.7800	3.6914	-16.0071	27.9000 
508.779	-0.0146	0.0073	1.0195	-0.8679	3.7024	-16.0565	27.8700 
508.799	-0.0234	0.0127	1.0264	-0.9613	3.7244	-16.1334	27.8800 
508.820	-0.0361	0.0205	1.0425	-1.0327	3.7518	-16.2103	27.8900 
508.883	-0.0361	0.0205	1.0498	-1.0712	3.7628	-16.2213	27.8900 
508.888	-0.0332	0.0161	1.0391	-1.0767	3.7683	-16.1719	27.9000 
508.888	-0.0278	0.0049	1.0176	-1.0547	3.7573	-16.0895	27.9000 
508.898	-0.0381	0.0151	1.0313	-1.0657	3.7628	-16.0236	27.8700 
508.918	-0.0449	-0.0049	1.0264	-1.1536	3.7958	-15.9741	27.9000 
508.938	-0.0439	0.0088	1.0303	-1.3129	3.8562	-15.9412	27.9100 
508.958	-0.0518	0.0010	1.0449	-1.5985	3.9551	-15.9467	27.8900 
508.978	-0.0396	0.0049	1.0215	-1.9226	4.0649	-15.9302	27.8900 
508.998	-0.0464	-0.0483	1.0166	-2.1533	4.1528	-15.8807	27.9000 
509.018	-0.0488	-0.0205	1.0503	-2.3346	4.2352	-15.8313	27.8900 
509.038	-0.0444	0.0039	1.0249	-2.3895	4.2902	-15.6885	27.8900 
509.058	-0.0273	-0.0034	1.0063	-2.4554	4.3451	-15.5182	27.9000 
509.078	-0.0127	-0.0146	1.0195	-2.5983	4.4110	-15.3479	27.9000 
509.124	-0.0254	-0.0156	1.0317	-2.8290	4.5154	-15.2271	27.9000 
509.126	-0.0049	-0.0337	1.0356	-3.0872	4.6417	-15.1227	27.9000 
509.138	0.0083	-0.0308	1.0356	-3.2904	4.7571	-15.0348	27.9000 
509.157	-0.0059	-0.0249	1.0283	-3.4882	4.8779	-14.9744	27.8900 
509.177	-0.0112	-0.0278	1.0200	-3.6749	4.9933	-14.9249	27.8800 
509.197	-0.0166	-0.0527	1.0122	-3.8068	5.1141	-14.8700	27.8700 
509.217	-0.0298	-0.0386	1.0327	-3.9166	5.2515	-14.8480	27.8900 
509.237	-0.0122	-0.0527	1.0391	-4.0649	5.3778	-14.8206	27.8800 
509.257	-0.0269	-0.0352	1.0615	-4.1638	5.4877	-14.8041	27.9000 
509.277	-0.0205	-0.0708	1.0518	-4.1693	5.5481	-14.7601	27.8800 
509.314	-0.0332	-0.0732	1.0454	-4.1748	5.5756	-14.7601	27.9000 
509.316	-0.0342	-0.0640	1.0103	-4.1858	5.5701	-14.7986	27.8900 
509.336	-0.0342	-0.0454	1.0259	-4.1858	5.5701	-14.9084	27.8800 
509.357	-0.0166	-0.0698	1.0405	-4.1528	5.5426	-15.0238	27.9000 
509.376	-0.0161	-0.0464	1.0532	-4.1089	5.4767	-15.1447	27.9000 
509.396	-0.0522	-0.0469	1.0220	-4.0100	5.3888	-15.3094	27.8900 
509.416	-0.0684	-0.0313	1.0317	-3.8837	5.2954	-15.4907	27.8800 
509.436	-0.0605	-0.0313	1.0078	-3.8068	5.2295	-15.7050	27.8900 
509.456	-0.0449	-0.0313	1.0146	-3.7134	5.1471	-15.8917	27.8900 
509.505	-0.0205	-0.0137	1.0220	-3.6145	5.0482	-16.0400	27.9100 
509.507	-0.0625	-0.0098	1.0337	-3.5321	4.9274	-16.1389	27.9100 
509.516	-0.0928	0.0210	1.0244	-3.4497	4.8615	-16.2378	27.9000 
509.536	-0.0864	0.0015	1.0264	-3.2739	4.7845	-16.2158	27.8900 
509.558	-0.0039	0.0244	1.0215	-3.1586	4.7461	-16.1884	27.9000 
509.576	0.0195	0.0391	1.0151	-2.9608	4.6802	-16.1005	27.9000 
509.595	-0.1211	0.0308	1.0068	-2.6862	4.6472	-16.0400	27.9000 
509.616	-0.0728	0.0415	1.0361	-2.3456	4.6582	-15.9027	27.9000 
509.635	-0.0156	-0.0957	0.9995	-2.1094	4.6362	-15.7214	27.9000 
509.655	0.0093	-0.0234	1.0049	-2.1588	4.6527	-15.7269	27.9100 
509.707	0.0244	0.0420	1.0024	-2.2687	4.6692	-15.8093	27.9000 
509.709	-0.0010	0.0479	1.0112	-2.3126	4.6362	-15.8972	27.9000 
509.715	-0.0264	0.0562	1.0190	-2.2852	4.5758	-15.9576	27.8900 
509.735	-0.0259	0.0308	1.0122	-2.2577	4.5154	-15.9741	27.9100 
509.755	0.0117	0.0137	1.0249	-2.2797	4.4440	-15.9741	27.9000 
509.775	0.0571	0.0327	1.0708	-2.2961	4.3561	-15.9412	27.8800 
509.795	0.0806	0.0264	1.0815	-2.3126	4.2517	-15.8972	27.9000 
509.814	0.0376	0.0601	1.0830	-2.3785	4.1638	-15.9192	27.9000 
509.835	0.0078	0.0615	1.0732	-2.4939	4.0979	-15.9302	27.9000 
509.857	-0.0161	0.0640	1.0488	-2.6587	4.0814	-15.9412	27.9100 
509.895	0.0049	0.0713	1.0366	-2.8510	4.1034	-15.9521	27.9000 
509.897	0.0117	0.0557	1.0137	-3.0103	4.1473	-15.9631	27.9000 
509.914	0.0151	0.0483	0.9941	-3.1476	4.1693	-15.9521	27.9000 
509.934	0.0156	0.0571	0.9775	-3.2574	4.1748	-15.9302	27.9000 
509.954	0.0264	0.0464	0.9819	-3.3948	4.1693	-15.8917	27.8900 
509.973	0.0317	0.0400	0.9873	-3.5211	4.1748	-15.8423	27.9100 
509.993	0.0332	0.0439	0.9907	-3.6365	4.1858	-15.7819	27.9100 
510.013	0.0254	0.0508	1.0171	-3.7354	4.2023	-15.7104	27.8900 
510.033	0.0215	0.0557	1.0352	-3.8177	4.2297	-15.6226	27.9000 
510.053	0.0200	0.0547	1.0366	-3.8782	4.2737	-15.5072	27.8800 
510.073	0.0229	0.0688	1.0210	-3.9111	4.3396	-15.3699	27.9000 
510.093	0.0171	0.0747	1.0093	-3.8947	4.4220	-15.2051	27.8800 
510.134	0.0054	0.0747	1.0156	-3.8617	4.5154	-15.0183	27.9000 
510.136	0.0078	0.0708	1.0078	-3.8287	4.6088	-14.8151	27.8900 
510.153	0.0190	0.0718	1.0020	-3.7683	4.7076	-14.5898	27.8900 
510.173	0.0322	0.0830	1.0132	-3.6639	4.8010	-14.3207	27.9000 
510.193	0.0347	0.0742	1.0249	-3.5431	4.8779	-14.0131	27.9100 
510.213	0.0415	0.0884	1.0498	-3.3948	4.9274	-13.6560	27.9000 
510.233	0.0444	0.0786	1.0522	-3.2135	4.9493	-13.2605	27.9100 
510.252	0.0566	0.0635	1.0723	-3.0048	4.9548	-12.8265	27.9000 
510.272	0.0708	0.0786	1.1265	-2.8235	4.9658	-12.3871	27.8900 
510.325	0.0835	0.1128	1.1846	-2.6257	4.9713	-11.9586	27.8900 
510.327	0.0884	0.1260	1.1792	-2.3456	4.9603	-11.5466	27.8900 
510.332	0.0640	0.1289	1.1265	-1.9940	4.9384	-11.1731	27.9000 
510.352	0.0439	0.0967	1.1348	-1.6534	4.9384	-10.8380	27.8800 
510.372	0.0225	0.0693	1.1802	-1.3458	4.9823	-10.5634	27.8800 
510.392	0.0400	0.0503	1.1416	-1.0712	5.0537	-10.3491	27.8800 
510.414	0.0313	-0.0356	1.1050	-0.8624	5.1251	-10.2557	27.8900 
510.431	-0.0229	-0.0396	1.1138	-0.7196	5.1965	-10.2832	27.8700 
510.451	-0.1582	-0.0957	1.0293	-0.6427	5.3064	-10.4590	27.8900 
510.471	-0.1997	-0.1289	0.9697	-0.6647	5.4437	-10.7446	27.8800 
510.511	-0.1782	-0.1514	0.9585	-0.8350	5.5646	-11.0248	27.8700 
510.515	-0.1694	-0.1650	1.0122	-0.9338	5.5811	-11.1401	27.8800 
510.534	-0.1660	-0.1353	1.1118	-0.8789	5.4877	-11.0577	27.8900 
510.551	-0.1416	-0.1133	1.1592	-0.7471	5.3284	-10.8820	27.8700 
510.571	-0.0952	-0.0947	1.1436	-0.5603	5.1306	-10.7227	27.8700 
510.591	-0.0903	-0.0874	1.0898	-0.3900	4.9493	-10.6677	27.8600 
510.611	-0.0942	-0.0273	1.0044	-0.3076	4.8230	-10.7062	27.8700 
510.631	-0.1011	0.0127	0.9414	-0.2197	4.7351	-10.7391	27.8600 
510.651	-0.1274	0.0029	0.8613	-0.0769	4.6747	-10.7336	27.8600 
510.675	-0.1343	-0.0151	0.8481	0.0824	4.6527	-10.7007	27.8700 
510.691	-0.1040	-0.0293	0.8477	0.2087	4.6637	-10.6677	27.8600 
510.710	-0.0752	-0.0337	0.8496	0.3021	4.6747	-10.6183	27.8500 
510.764	-0.0474	-0.0020	0.8916	0.3461	4.6692	-10.5579	27.8500 
510.767	-0.0645	0.0342	0.9458	0.4175	4.6582	-10.4700	27.8700 
510.770	-0.0894	0.0444	0.9917	0.4779	4.6527	-10.3986	27.8700 
510.790	-0.1030	0.0635	1.0010	0.6921	4.6582	-10.3381	27.8500 
510.810	-0.0947	0.0830	0.9751	1.0107	4.6747	-10.2777	27.8600 
510.830	-0.0801	0.0791	0.9570	1.2854	4.7021	-10.2338	27.8500 
510.853	-0.0693	0.0884	0.9526	1.4447	4.7351	-10.2118	27.8600 
510.915	-0.0659	0.1157	0.9614	1.5601	4.7406	-10.2008	27.8600 
510.920	-0.0806	0.1201	0.9824	1.7029	4.7186	-10.2228	27.8600 
510.920	-0.1064	0.1064	1.0034	1.8457	4.6802	-10.2777	27.8600 
510.930	-0.1338	0.1162	1.0376	2.0380	4.6417	-10.3271	27.8500 
510.949	-0.1211	0.1304	1.0630	2.2357	4.5978	-10.3711	27.8400 
510.969	-0.1128	0.1343	1.1011	2.4500	4.5593	-10.4095	27.8700 
510.996	-0.1060	0.1475	1.0967	2.6147	4.5264	-10.4370	27.8600 
511.011	-0.0820	0.1768	1.1196	2.7850	4.4989	-10.4480	27.8700 
511.029	-0.0586	0.1465	1.2041	2.9938	4.4550	-10.4260	27.8700 
511.049	-0.0049	0.1460	1.2734	3.2629	4.3671	-10.3711	27.8500 
511.069	-0.0371	0.1113	1.1538	3.6749	4.2957	-10.3491	27.8700 
511.089	-0.0854	0.0054	1.1406	4.0485	4.2792	-10.3876	27.8800 
511.109	-0.0107	0.0435	1.0581	4.1803	4.3176	-10.4315	27.8500 
511.169	0.0479	-0.0552	0.9780	4.1968	4.4000	-10.5524	27.8600 
511.171	0.1177	-0.1567	0.9087	4.0924	4.4934	-10.6897	27.8500 
511.171	0.1250	-0.1572	0.9810	3.9001	4.5703	-10.8490	27.8600 
511.189	0.0474	-0.0645	1.1514	3.6914	4.7076	-11.1566	27.8700 
511.208	-0.0112	-0.0381	1.2085	3.4222	4.9164	-11.5302	27.8500 
511.228	-0.0508	0.0117	1.1616	3.1696	5.1855	-11.8817	27.8600 
511.248	-0.0488	0.0630	1.0825	2.9279	5.5316	-12.1948	27.8500 
511.268	-0.0093	0.0625	0.9448	2.7356	5.8722	-12.4255	27.8400 
511.288	-0.0020	0.0479	0.8594	2.7026	6.1414	-12.5793	27.8400 
511.308	0.0493	0.0107	0.8145	2.7026	6.3501	-12.6727	27.8500 
511.358	0.0439	0.0327	0.8291	2.6642	6.5149	-12.7826	27.8500 
511.360	0.0010	0.0000	0.8867	2.5323	6.6687	-12.9034	27.8600 
511.368	-0.0059	0.0371	0.9375	2.3456	6.8225	-12.9913	27.8400 
511.388	0.0122	0.0498	0.9668	2.2797	6.9598	-13.0133	27.8600 
511.407	0.0361	0.0527	0.9575	2.2522	7.0587	-12.9309	27.8600 
511.427	0.0063	0.0742	0.9678	2.1863	7.1191	-12.7826	27.8500 
511.447	-0.0093	0.0796	0.9814	2.1368	7.1521	-12.6013	27.8600 
511.467	-0.0298	0.1069	1.0020	2.1698	7.1796	-12.4200	27.8500 
511.488	-0.0400	0.0820	1.0088	2.2137	7.2290	-12.2388	27.8600 
511.507	-0.0093	0.1133	1.0474	2.1808	7.3224	-12.0300	27.8600 
511.557	0.0054	0.1367	1.0596	2.1368	7.4542	-11.8048	27.8700 
511.560	0.0249	0.1768	1.0923	2.2467	7.5421	-11.5302	27.8600 
511.567	0.0396	0.1592	1.0908	2.5049	7.5751	-11.2445	27.8600 
511.587	0.0894	0.1260	1.0483	3.0212	7.6135	-11.0358	27.8700 
511.607	0.0757	0.1050	1.0464	3.2410	7.6849	-10.9644	27.8700 
511.626	0.0010	0.1641	1.0947	3.2794	7.8003	-11.0413	27.8600 
511.647	-0.1050	0.1733	1.1948	3.2959	7.9926	-11.2061	27.8500 
511.666	-0.1909	0.1650	1.3252	3.1860	8.2562	-11.3379	27.8700 
511.686	-0.1646	0.1152	1.2827	3.1805	8.5364	-11.3763	27.8500 
511.706	-0.1328	-0.0029	1.1304	3.2300	8.8275	-11.4587	27.8600 
511.749	-0.1162	-0.0313	1.0254	3.2080	9.0802	-11.5796	27.8500 
511.752	-0.1572	-0.1372	0.9272	2.8674	9.2120	-11.7169	27.8500 
511.765	-0.2358	-0.1016	0.9819	2.3676	9.1187	-11.7114	27.8700 
511.787	-0.3394	-0.0557	1.1499	2.0874	8.8934	-11.3763	27.8400 
511.806	-0.2549	-0.0498	1.1855	2.0984	8.6517	-10.8270	27.8600 
511.826	-0.1123	-0.0640	1.1270	2.1368	8.3936	-10.2667	27.8400 
511.845	-0.0742	-0.1060	1.0469	2.0105	8.1189	-9.8108	27.8500 
511.865	-0.0122	-0.0386	0.9731	1.9391	7.8387	-9.4318	27.8500 
511.890	-0.0186	0.0215	0.9248	1.7743	7.5311	-9.1406	27.8500 
511.949	-0.0923	0.0498	0.8213	1.5985	7.2345	-8.9429	27.8500 
511.951	-0.1450	0.0303	0.7778	1.5546	6.9873	-8.8110	27.8500 
511.951	-0.1738	0.0176	0.7915	1.5546	6.8060	-8.6682	27.8400 
511.965	-0.1279	0.0347	0.8086	1.7633	6.6412	-8.5529	27.8300 
511.985	-0.1123	0.0264	0.8408	2.3236	6.4819	-8.5858	27.8500 
512.005	-0.1104	0.0288	0.8926	2.4225	6.3666	-8.6188	27.8500 
512.025	-0.1030	0.0396	0.9766	2.0874	6.2567	-8.5858	27.8400 
512.044	-0.1450	0.0801	1.0088	1.7249	6.1908	-8.6792	27.8400 
512.066	-0.1313	0.1055	0.9785	1.8732	6.1469	-8.8055	27.8400 
512.086	-0.1104	0.1499	0.9873	1.9391	6.0974	-8.9429	27.8400 
512.151	-0.0908	0.1743	0.9976	2.1808	5.9985	-8.9648	27.8500 
512.155	-0.0835	0.1597	0.9951	2.4554	5.8557	-8.8989	27.8500 
512.155	-0.1064	0.1768	1.0142	2.7795	5.6964	-8.8715	27.8400 
512.164	-0.1445	0.1523	1.0181	3.1091	5.5591	-8.8770	27.8500 
512.184	-0.1772	0.1719	1.0518	3.3179	5.4657	-8.8770	27.8500 
512.204	-0.1948	0.1758	1.0527	3.4332	5.4053	-8.8055	27.8600 
512.223	-0.1382	0.2563	1.0850	3.5376	5.3833	-8.6133	27.8400 
512.244	-0.0762	0.2310	1.1738	3.8177	5.3284	-8.3661	27.8500 
512.264	0.0132	0.1924	1.3262	4.1968	5.1361	-8.0255	27.8500 
512.283	0.0010	0.1611	1.2764	4.6802	4.8834	-7.6630	27.8500 
512.303	-0.0420	0.0093	1.1855	5.0702	4.6692	-7.4103	27.8500 
512.343	0.0093	-0.0220	1.0918	5.1141	4.5044	-7.1741	27.8500 
512.345	0.1050	-0.1313	0.9170	4.8010	4.4110	-6.8445	27.8500 
512.363	0.1099	-0.1787	0.9424	4.2462	4.3561	-6.5094	27.8400 
512.383	0.1323	-0.1846	1.0996	3.5266	4.3506	-6.3611	27.8400 
512.403	0.0527	-0.1104	1.3076	2.9114	4.3726	-6.4819	27.8600 
512.423	-0.0679	-0.0298	1.2666	2.5104	4.4824	-6.9379	27.8600 
512.443	-0.0630	0.0210	1.1177	2.3346	4.6307	-7.2729	27.8500 
512.463	-0.0254	0.0308	0.9985	2.1533	4.8010	-7.4817	27.8400 
512.483	-0.0156	-0.0166	0.8804	2.0215	4.9493	-7.6355	27.8400 
512.534	0.0000	-0.0132	0.8579	1.9611	5.0812	-7.7563	27.8600 
512.537	0.0508	0.0088	0.8682	2.0215	5.1636	-7.8278	27.8600 
512.543	0.0376	0.0083	0.8735	2.1094	5.2130	-7.8827	27.8500 
512.562	0.0098	0.0757	0.8760	2.0050	5.2460	-7.9266	27.8500 
512.582	0.0078	0.0474	0.8701	1.9446	5.3009	-7.9926	27.8500 
512.602	-0.0059	0.0381	0.8921	1.9226	5.3778	-8.0035	27.8600 
512.621	0.0029	0.0244	0.9033	1.7249	5.4492	-7.9047	27.8800 
512.642	0.0176	0.0835	0.9541	1.4612	5.5042	-7.7563	27.8500 
512.662	0.0059	0.1084	0.9819	1.3403	5.5591	-7.6300	27.8700 
512.682	0.0034	0.1450	0.9956	1.4392	5.6085	-7.5366	27.8700 
512.703	0.0015	0.1362	0.9902	1.5326	5.6854	-7.4213	27.8600 
512.722	0.0239	0.1304	1.0088	1.4447	5.7788	-7.1851	27.8200 
512.772	0.0396	0.1396	1.0439	1.3843	5.8612	-6.9049	27.8400 
512.774	0.0566	0.1255	1.0630	1.4777	5.9381	-6.6742	27.8600 
512.782	0.0625	0.1016	1.0488	1.6754	6.0315	-6.5259	27.8300 
512.801	0.0195	0.1260	1.0396	1.8237	6.1743	-6.4819	27.8700 
512.822	-0.0361	0.1855	1.0420	2.0709	6.3831	-6.5753	27.8700 
512.841	-0.0923	0.2427	1.0942	2.4115	6.6632	-6.6687	27.8500 
512.861	-0.1362	0.1709	1.2051	2.7631	6.9489	-6.6522	27.8600 
512.880	-0.0854	0.1406	1.1660	3.2245	7.1631	-6.3336	27.8500 
512.901	-0.0479	-0.0571	1.0527	3.7573	7.3169	-5.9381	27.8600 
512.920	-0.1689	-0.1763	1.0640	3.8342	7.5092	-5.7513	27.8800 
512.959	-0.2715	-0.1992	1.1050	3.5211	7.8058	-5.8063	27.8600 
512.961	-0.2793	-0.0977	1.2222	2.9498	8.0585	-5.9216	27.8800 
512.980	-0.2021	-0.0864	1.3174	2.3895	8.1848	-5.9106	27.8700 
513.000	-0.0498	-0.0195	1.3516	2.1478	8.1244	-5.6744	27.8700 
513.022	0.0044	-0.0215	1.2427	2.0984	7.8717	-5.2185	27.8700 
513.040	-0.0610	0.0752	1.0645	2.0105	7.5146	-4.8010	27.8500 
513.060	-0.0664	0.0923	0.8911	2.1643	7.1191	-4.4495	27.8600 
513.080	-0.0513	0.0029	0.7197	2.5159	6.7731	-4.1803	27.8800 
513.100	-0.0342	0.0083	0.7095	2.8290	6.4105	-3.9386	27.8700 
513.166	0.0044	0.0391	0.7725	3.2190	6.0040	-3.6859	27.8800 
513.168	-0.0278	0.0400	0.8110	3.5870	5.5920	-3.5596	27.8700 
513.168	-0.0791	0.0586	0.8408	3.7628	5.3064	-3.6859	27.8600 
513.180	-0.0801	0.0747	0.8916	3.7848	5.0922	-3.8837	27.8700 
513.200	-0.1011	0.0728	0.9258	3.7354	4.9109	-4.1144	27.8600 
513.219	-0.1060	0.0640	0.9307	3.8177	4.8285	-4.4879	27.8600 
513.239	-0.0928	0.2212	0.9985	3.8837	4.7900	-4.8724	27.8800 
513.259	-0.1064	0.1650	0.9805	4.0594	4.7571	-5.1416	27.8900 
513.279	-0.0894	0.1812	0.9712	4.2133	4.7076	-5.3174	27.8700 
513.299	-0.0703	0.1978	0.9912	4.3726	4.6472	-5.4382	27.8500 
513.362	-0.0503	0.1997	1.0439	4.5374	4.5374	-5.5591	27.8700 
513.365	-0.0864	0.2085	1.0547	4.7351	4.4055	-5.6964	27.8600 
513.365	-0.1455	0.2061	1.0503	4.9164	4.3011	-5.8118	27.8700 
513.379	-0.1426	0.2017	1.0415	5.0153	4.2188	-5.8612	27.8600 
513.399	-0.0698	0.2363	1.0850	5.1965	4.1364	-5.8447	27.8700 
513.419	0.0020	0.1792	1.2212	5.4492	4.0100	-5.8063	27.8700 
513.439	0.0796	0.2056	1.2813	5.8228	3.8013	-5.7733	27.8700 
513.458	0.0293	0.0601	1.1904	6.2787	3.5706	-5.8008	27.8600 
513.478	0.0518	0.0146	1.1055	6.4874	3.3893	-5.9106	27.8600 
513.498	0.1089	-0.0327	1.0552	6.3556	3.2684	-5.9326	27.8500 
513.553	0.1445	-0.1851	1.0430	5.8063	3.1970	-5.7349	27.8800 
513.557	0.1235	-0.1055	1.1631	5.1086	3.2410	-5.6525	27.8600 
513.560	-0.0049	0.0444	1.2886	4.4659	3.4607	-5.9381	27.8700 
513.578	-0.0811	0.0605	1.2314	3.9716	3.7738	-6.4215	27.8600 
513.597	-0.0884	0.0684	1.0752	3.7628	4.1748	-6.8335	27.8900 
513.618	-0.0645	0.0659	0.9424	3.6584	4.6472	-7.1246	27.8700 
513.637	-0.0195	0.0361	0.7583	3.5376	5.1361	-7.2949	27.8700 
513.657	0.0181	0.0083	0.7065	3.2465	5.5756	-7.3114	27.8700 
513.679	0.0532	0.0278	0.7627	2.9224	5.9161	-7.1906	27.8600 
513.697	0.0552	0.0278	0.8730	2.6642	6.1688	-7.0148	27.8700 
513.717	0.0498	0.0322	0.8945	2.4884	6.3446	-6.8280	27.8700 
513.737	0.0498	0.0088	0.8979	2.4170	6.4655	-6.5973	27.8700 
513.790	0.0571	0.0098	0.9277	2.2852	6.5369	-6.2677	27.8700 
513.792	0.0435	0.0850	1.0044	2.2137	6.6193	-5.9711	27.8800 
513.797	0.0259	0.1265	1.0347	2.2083	6.7072	-5.7404	27.8700 
513.817	-0.0142	0.1206	1.0137	2.3621	6.7786	-5.5206	27.8600 
513.838	-0.0269	0.1089	1.0195	2.6532	6.8500	-5.3174	27.8700 
513.856	-0.0137	0.1328	1.0386	2.8180	6.9873	-5.1306	27.8700 
513.877	0.0029	0.1758	1.0405	2.9663	7.2015	-4.9548	27.8700 
513.897	0.0000	0.1782	1.0840	3.1201	7.4487	-4.7516	27.8700 
513.918	0.0547	0.1958	1.1035	3.5101	7.6630	-4.4714	27.8800 
513.936	0.0840	0.1079	1.0566	4.0430	7.8442	-4.3451	27.8600 
513.980	0.0400	0.1382	1.0522	4.1858	8.0145	-4.3671	27.8600 
513.982	-0.0850	0.1792	1.1440	4.0045	8.2288	-4.4769	27.8600 
513.996	-0.1685	0.1567	1.2681	3.4277	8.4869	-4.5758	27.8600 
514.016	-0.1973	0.1313	1.1787	3.6530	8.7231	-4.6417	27.8800 
514.039	-0.2168	-0.0117	1.0435	4.0320	9.0198	-4.7406	27.8700 
514.056	-0.2324	-0.0713	0.9810	3.6859	9.3549	-4.8944	27.8700 
514.077	-0.2466	-0.1172	0.9858	3.1641	9.6350	-5.0867	27.8700 
514.096	-0.2705	-0.1304	1.0825	2.5873	9.7174	-5.1141	27.8500 
514.116	-0.2646	-0.0894	1.2417	2.0929	9.6844	-4.9658	27.8500 
514.176	-0.1382	-0.0459	1.3105	1.8951	9.5471	-4.6637	27.8600 
514.180	-0.0894	-0.0342	1.2051	1.7633	9.3439	-4.3286	27.8600 
514.180	-0.0615	0.0308	1.0181	1.8951	9.1241	-4.0485	27.8600 
514.196	-0.0439	0.0068	0.8979	2.1423	8.8550	-3.7903	27.8700 
514.214	-0.0830	0.0332	0.7910	2.2687	8.5638	-3.6035	27.8700 
514.235	-0.1343	0.0576	0.7690	2.3511	8.2892	-3.4827	27.8700 
514.255	-0.1768	0.0308	0.7891	2.4280	8.0310	-3.4058	27.8600 
514.274	-0.1680	0.0146	0.8198	2.5433	7.8113	-3.4003	27.8700 
514.295	-0.1348	0.0093	0.8501	2.4994	7.6245	-3.5266	27.8600 
514.314	-0.1313	0.0493	0.8892	2.2906	7.4872	-3.7134	27.8700 
514.371	-0.1401	0.0688	0.9453	2.2467	7.3773	-3.9056	27.8600 
514.375	-0.1509	0.0728	0.9536	2.2577	7.2839	-4.1199	27.8600 
514.379	-0.1519	0.1211	0.9854	2.1588	7.2180	-4.3726	27.8600 
514.394	-0.1548	0.1367	1.0000	2.1039	7.1576	-4.6747	27.8600 
514.414	-0.1133	0.1714	1.0278	2.0874	7.0532	-4.9384	27.8600 
514.434	-0.0874	0.2095	1.0488	2.2742	6.8719	-5.1801	27.8500 
514.454	-0.0845	0.2012	1.0303	2.6422	6.6357	-5.4218	27.8500 
514.474	-0.0938	0.1899	1.0293	2.9498	6.3611	-5.6250	27.8500 
514.494	-0.1548	0.1797	1.0073	3.2739	6.1084	-5.8447	27.8700 
514.514	-0.1689	0.1528	1.0103	3.5376	5.9106	-6.0425	27.8600 
514.561	-0.1421	0.2163	1.0298	3.6420	5.7458	-6.1578	27.8400 
514.566	-0.0938	0.2495	1.0747	3.7793	5.5646	-6.1853	27.8400 
514.573	-0.0264	0.1626	1.2437	3.9661	5.3009	-6.1633	27.8500 
514.593	0.0015	0.1753	1.2935	4.2572	4.9493	-6.1578	27.8500 
514.613	-0.0454	0.0972	1.1797	4.7241	4.6198	-6.1523	27.8500 
514.634	-0.0479	0.0454	1.0522	5.0977	4.4000	-6.0754	27.8500 
514.653	0.0293	-0.0527	0.9370	5.0482	4.3231	-5.8612	27.8500 
514.673	0.0488	-0.1538	0.9844	4.5374	4.3176	-5.4492	27.8400 
514.693	0.0483	-0.1138	1.2080	3.8782	4.4055	-5.1361	27.8600 
514.713	0.0215	-0.0688	1.3145	3.3124	4.5374	-4.9548	27.8500 
514.734	-0.0396	0.0259	1.2500	2.9224	4.7076	-4.8889	27.8500 
514.753	-0.0571	0.0264	1.1338	2.7081	4.8999	-4.7900	27.8700 
514.803	-0.0688	0.0435	0.9541	2.5378	5.1471	-4.5813	27.8400 
514.805	-0.0640	0.0181	0.8984	2.4664	5.4327	-4.2627	27.8500 
514.812	0.0117	-0.0093	0.8667	2.3730	5.6470	-3.8177	27.8600 
514.832	0.0396	0.0151	0.8643	2.2687	5.7733	-3.3398	27.8700 
514.852	0.0229	0.0332	0.8716	2.2137	5.8173	-2.8894	27.8700 
514.872	-0.0103	0.0000	0.8477	2.1368	5.8228	-2.4170	27.8600 
514.892	-0.0103	0.0059	0.8809	2.0050	5.8337	-1.9336	27.8800 
514.913	-0.0010	0.0220	0.9409	1.8018	5.8667	-1.3568	27.8700 
514.931	0.0342	0.0566	1.0020	1.7303	5.8942	-0.6976	27.8600 
514.951	0.0317	0.0664	1.0210	1.8292	5.8997	-0.0769	27.8400 
514.990	0.0415	0.0889	1.0254	1.8622	5.8667	0.5054	27.8500 
514.993	0.0352	0.0991	1.0234	1.9226	5.8008	1.0437	27.8500 
515.014	0.0337	0.0942	1.0181	2.0270	5.7458	1.5656	27.8400 
515.031	0.0273	0.1528	1.0576	2.1753	5.7184	2.0819	27.8500 
515.052	0.0039	0.1572	1.0571	2.4170	5.7184	2.5873	27.8600 
515.071	0.0557	0.1465	1.0366	2.7631	5.7239	3.0981	27.8400 
515.091	0.1016	0.1157	1.0059	3.2135	5.7239	3.5541	27.8500 
515.111	0.0669	0.0942	0.9829	3.5266	5.7678	3.8068	27.8500 
515.133	0.0391	0.2202	1.0049	3.8672	5.8557	3.9551	27.8500 
515.180	-0.0908	0.1997	1.1191	4.2407	5.9601	4.1254	27.8500 
515.182	-0.1533	0.1831	1.2046	4.7461	6.0590	4.4165	27.8400 
515.191	-0.1147	0.1250	1.1680	5.4272	6.1194	4.9109	27.8400 
515.210	-0.1099	-0.0415	1.0908	5.9216	6.1743	5.3998	27.8700 
515.230	-0.1743	-0.0635	1.0078	6.0205	6.3776	5.5261	27.8400 
515.250	-0.2251	-0.0698	0.9766	5.6140	6.6412	5.5042	27.8300 
515.272	-0.2544	-0.0293	1.1353	4.9219	6.8555	5.5591	27.8400 
515.290	-0.1797	0.0386	1.2852	4.3726	6.9434	5.8392	27.8400 
515.310	-0.0376	0.0542	1.2896	4.1858	6.8774	6.3007	27.8400 
515.330	-0.0225	0.0615	1.1577	4.1309	6.7126	6.7017	27.8400 
515.350	-0.0098	0.0845	0.9824	4.0924	6.4655	6.9763	27.8400 
515.370	-0.0479	0.0615	0.8623	4.1309	6.2292	7.1631	27.8500 
515.389	-0.0913	0.1079	0.8037	4.1364	6.0425	7.2565	27.8600 
515.437	-0.1064	0.0781	0.7988	4.1968	5.8777	7.2675	27.8600 
515.440	-0.1099	0.0771	0.8359	4.1968	5.7568	7.2235	27.8500 
515.449	-0.1021	0.0786	0.8481	4.2133	5.6580	7.1356	27.8300 
515.469	-0.0811	0.0996	0.8652	4.3176	5.5701	7.0038	27.8400 
515.489	-0.0840	0.1025	0.8882	4.3231	5.4932	6.8829	27.8400 
515.509	-0.1050	0.1045	0.9482	4.2352	5.4218	6.7950	27.8300 
515.529	-0.0996	0.1309	0.9629	4.1034	5.3613	6.7291	27.8600 
515.580	-0.0894	0.1323	0.9878	4.2133	5.3064	6.6302	27.8700 
515.584	-0.0889	0.1655	1.0049	4.1583	5.2295	6.5149	27.8600 
515.589	-0.0781	0.1802	1.0249	4.2078	5.1526	6.3666	27.8400 
515.609	-0.0757	0.1895	1.0347	4.3506	5.0757	6.1853	27.8500 
515.629	-0.0698	0.2329	1.0566	4.5099	4.9933	6.0040	27.8600 
515.648	-0.0952	0.2217	1.0439	4.6857	4.9329	5.8008	27.8500 
515.669	-0.1143	0.2070	1.0288	4.7461	4.8889	5.6250	27.8600 
515.688	-0.1167	0.2163	1.0161	4.7681	4.8505	5.5042	27.8400 
515.709	-0.0693	0.2402	1.0410	4.8340	4.7955	5.4108	27.8300 
515.728	-0.0083	0.2085	1.1328	4.9384	4.6747	5.3174	27.8400 
515.749	0.0391	0.2100	1.2124	5.1965	4.4659	5.1526	27.8400 
515.768	-0.0176	0.0869	1.1587	5.6305	4.2297	4.9164	27.8200 
515.820	0.0381	-0.0166	1.1440	5.9766	4.0375	4.6912	27.8400 
515.822	0.1372	-0.0508	1.1123	6.0919	3.9001	4.5538	27.8600 
515.828	0.1943	-0.1504	1.1079	5.8228	3.8232	4.4604	27.8500 
515.848	0.1172	-0.1255	1.1729	5.0867	3.8123	4.2737	27.8300 
515.868	-0.0654	0.0176	1.2788	4.2792	3.8892	3.8782	27.8600 
515.888	-0.1162	0.0576	1.2520	3.7903	4.0759	3.3673	27.8400 
515.907	-0.0850	0.0757	1.0908	3.6090	4.3506	2.9224	27.8500 
515.927	-0.0220	0.0669	0.9429	3.5651	4.6747	2.5269	27.8800 
515.947	0.0400	0.0591	0.7661	3.5706	4.9329	2.2467	27.8500 
515.966	0.0479	0.0410	0.7456	3.4991	5.1141	2.0764	27.8400 
516.008	0.0356	0.0313	0.8252	3.3124	5.2295	1.9281	27.8400 
516.019	0.0376	0.0415	0.8687	3.1970	5.3174	1.7853	27.8400 
516.027	0.0454	0.0630	0.9131	3.1311	5.3778	1.6479	27.8500 
516.047	0.0376	0.0547	0.9380	3.1036	5.4437	1.5491	27.8400 
516.067	0.0635	0.0781	0.9805	2.9443	5.5096	1.5546	27.8500 
516.086	0.0688	0.0874	0.9883	2.7905	5.5536	1.6370	27.8600 
516.106	0.0601	0.1206	1.0029	2.7466	5.5811	1.7249	27.8500 
516.126	0.0327	0.1357	1.0010	2.7576	5.6140	1.7743	27.8600 
516.148	0.0005	0.1201	0.9722	2.7850	5.6635	1.7743	27.8400 
516.199	-0.0024	0.1655	0.9814	2.7960	5.7568	1.7743	27.8500 
516.201	-0.0186	0.1582	0.9985	2.8894	5.9216	1.8127	27.8400 
516.206	0.0107	0.1494	1.0269	2.9608	6.1194	1.9446	27.8400 
516.226	0.1055	0.0933	1.0386	3.0981	6.3062	2.1094	27.8100 
516.246	0.1147	0.1035	1.0347	3.2025	6.4764	2.1313	27.8100 
516.265	0.0664	0.2017	1.0825	3.3563	6.6138	2.0105	27.8300 
516.286	-0.0830	0.1904	1.2441	3.5046	6.7456	1.8951	27.8300 
516.306	-0.1714	0.1870	1.3442	3.9331	6.8829	1.8457	27.8500 
516.326	-0.1475	0.0571	1.1904	4.4769	7.0697	1.8402	27.8400 
516.345	-0.0903	0.0234	1.0308	4.5923	7.3169	1.8127	27.8200 
516.389	-0.0898	-0.0977	0.9028	4.0594	7.5696	1.6699	27.8300 
516.392	-0.1382	-0.0986	0.9355	3.1146	7.6685	1.4777	27.8200 
516.405	-0.2451	-0.0640	1.1709	2.4609	7.6190	1.3843	27.8400 
516.425	-0.2354	-0.0024	1.2974	2.1204	7.5092	1.4172	27.8100 
516.445	-0.0854	0.0039	1.2251	2.0435	7.4103	1.5601	27.8200 
516.465	-0.0200	0.0186	1.1470	1.8732	7.3279	1.6754	27.8200 
516.485	0.0215	0.0156	1.0132	1.7743	7.1466	1.6974	27.8200 
516.505	-0.0156	0.0073	0.9551	1.8127	6.8939	1.6589	27.8200 
516.525	-0.0923	0.0693	0.8789	1.5710	6.6412	1.5546	27.8200 
516.544	-0.1162	0.0537	0.8496	1.6589	6.4435	1.3843	27.8200 
516.565	-0.1587	0.0596	0.8169	2.0544	6.3062	1.0876	27.8100 
516.585	-0.1260	0.0771	0.8149	2.1698	6.2347	0.8185	27.8100 
516.638	-0.0723	0.0840	0.8398	2.1478	6.1853	0.6812	27.8100 
516.640	-0.0586	0.0747	0.8613	2.1918	6.1084	0.6427	27.8000 
516.644	-0.0737	0.0742	0.9116	2.1753	6.0040	0.6317	27.8200 
516.664	-0.0835	0.1128	0.9316	2.1313	5.8777	0.5603	27.7900 
516.684	-0.0952	0.1143	0.9604	2.2028	5.7843	0.4175	27.7900 
516.704	-0.0942	0.1313	0.9927	2.3346	5.7294	0.2472	27.7900 
516.724	-0.0659	0.1553	1.0410	2.4005	5.6744	0.0714	27.7900 
516.744	-0.0537	0.1743	1.0801	2.5378	5.5975	-0.0769	27.8000 
516.766	-0.0796	0.1812	1.0977	2.7466	5.4987	-0.2747	27.7800 
516.784	-0.1221	0.2051	1.0747	2.9663	5.3998	-0.4669	27.8000 
516.828	-0.1460	0.2085	1.0215	3.2135	5.3174	-0.6042	27.7900 
516.831	-0.1289	0.2246	1.0083	3.4332	5.2460	-0.6976	27.7900 
516.843	-0.0459	0.2246	1.0957	3.6200	5.1471	-0.7416	27.7900 
516.863	0.0210	0.1465	1.2417	3.8177	4.9603	-0.8130	27.7900 
516.883	0.0107	0.1240	1.2192	4.2023	4.6967	-0.9668	27.7800 
516.902	-0.0415	0.0220	1.1914	4.5319	4.4659	-1.1865	27.7900 
516.922	0.0156	-0.0659	1.1157	4.4220	4.3066	-1.3074	27.8000 
516.943	0.0923	-0.1187	1.0732	4.0704	4.2023	-1.2579	27.8000 
516.963	0.0840	-0.1743	1.1113	3.4442	4.1748	-1.2030	27.7800 
517.016	0.0186	-0.1533	1.2017	2.7466	4.2407	-1.3623	27.8000 
517.021	-0.0933	-0.0430	1.2764	2.2797	4.3781	-1.6479	27.8000 
517.023	-0.1494	-0.0083	1.2383	2.0544	4.6088	-1.9666	27.7900 
517.042	-0.1367	0.0068	1.0625	1.9940	4.9164	-2.1753	27.7900 
517.062	-0.0723	0.0259	0.9487	1.9611	5.2295	-2.2357	27.8000 
517.081	0.0215	-0.0029	0.8389	1.8842	5.4492	-2.1478	27.7800 
517.102	0.0562	-0.0479	0.8110	1.7358	5.5426	-1.9611	27.7800 
517.122	0.0469	-0.0391	0.8481	1.6205	5.5701	-1.7963	27.8100 
517.142	0.0205	0.0029	0.8755	1.5710	5.5865	-1.6699	27.8000 
517.162	-0.0034	-0.0093	0.8691	1.5820	5.6140	-1.5436	27.7900 
517.207	0.0010	0.0029	0.8696	1.6425	5.6470	-1.3458	27.7700 
517.210	0.0303	0.0591	0.9326	1.6974	5.6689	-1.0657	27.7800 
517.222	0.0283	0.0762	0.9717	1.7249	5.6470	-0.7086	27.7800 
517.242	-0.0044	0.0879	0.9810	1.7908	5.5920	-0.3406	27.7900 
517.261	-0.0254	0.0840	0.9839	1.9171	5.5426	0.0000	27.7800 
517.281	-0.0210	0.0918	0.9697	2.0270	5.5206	0.2911	27.7800 
517.301	-0.0107	0.1260	0.9810	2.0599	5.5481	0.5823	27.7800 
517.321	-0.0117	0.1567	1.0347	2.1863	5.6195	0.9338	27.7900 
517.341	0.0039	0.1748	1.0498	2.4005	5.7129	1.3568	27.7900 
517.361	0.0483	0.1553	1.0498	2.6697	5.7898	1.8127	27.7800 
517.381	0.0825	0.1182	1.0190	2.9718	5.8502	2.1973	27.7700 
517.401	0.0718	0.1045	1.0317	3.1805	5.9161	2.3895	27.7600 
517.439	0.0190	0.1890	1.0605	3.2684	5.9875	2.4500	27.7900 
517.441	-0.0332	0.2607	1.0737	3.4937	6.0535	2.4939	27.8000 
517.461	-0.0640	0.2236	1.1362	3.8782	6.1249	2.5763	27.7900 
517.481	-0.0625	0.1929	1.2368	4.2902	6.1853	2.7411	27.7900 
517.501	-0.0396	0.1494	1.1895	4.6857	6.2238	2.9443	27.7600 
517.519	-0.1211	0.0439	1.0684	4.9219	6.2622	2.9938	27.7800 
517.540	-0.2212	-0.0181	0.9663	4.9054	6.3446	2.8949	27.7800 
517.560	-0.3286	-0.0996	0.9561	4.4934	6.5204	2.6532	27.7800 
517.582	-0.3179	-0.0562	1.0723	3.9221	6.7181	2.5159	27.7900 
517.631	-0.2681	-0.0464	1.2271	3.4167	6.8884	2.6257	27.7700 
517.633	-0.1250	-0.0210	1.2993	3.0048	6.9653	2.8949	27.7900 
517.639	-0.0562	0.0083	1.2344	2.6312	6.9324	3.1531	27.7900 
517.662	-0.0356	0.0190	1.0557	2.1643	6.8005	3.3289	27.7800 
517.680	-0.0537	0.0005	0.9443	1.6589	6.6138	3.4607	27.8000 
517.699	-0.1333	0.0508	0.8584	1.2854	6.4600	3.5046	27.7900 
517.719	-0.1665	0.0420	0.8281	1.1316	6.3281	3.5541	27.7900 
517.739	-0.1958	0.0308	0.8057	1.1316	6.2622	3.5321	27.7700 
517.759	-0.1875	0.0122	0.7959	1.1041	6.2512	3.4937	27.7800 
517.780	-0.1235	0.0371	0.8345	1.0327	6.2622	3.5156	27.7800 
517.818	-0.0938	0.0161	0.8774	0.9778	6.2128	3.6530	27.7900 
517.820	-0.1108	0.0615	0.9756	0.9119	6.0864	3.8287	27.7900 
517.839	-0.1348	0.0801	0.9766	1.0437	5.9052	4.0594	27.7800 
517.859	-0.1670	0.1011	0.9600	1.1591	5.7019	4.2737	27.7800 
517.878	-0.1621	0.1006	0.9526	1.4063	5.5096	4.4440	27.7800 
517.898	-0.1514	0.1021	0.9253	1.6589	5.3339	4.6582	27.7800 
517.919	-0.1582	0.1445	0.9512	1.9336	5.1746	4.9219	27.7800 
517.938	-0.1563	0.1729	0.9683	2.1753	5.0208	5.2954	27.7800 
517.958	-0.1523	0.1953	0.9907	2.3291	4.8285	5.7019	27.7900 
517.980	-0.1211	0.1899	1.0239	2.5488	4.5923	6.1414	27.7800 
517.997	-0.1147	0.1807	1.0264	2.8784	4.3176	6.6138	27.7800 
518.018	-0.1362	0.1572	1.0400	3.1805	4.0265	7.1027	27.7800 
518.057	-0.1328	0.1484	1.0293	3.2739	3.7189	7.6410	27.7700 
518.058	-0.0664	0.2109	1.1357	3.3948	3.3893	8.2507	27.7900 
518.077	-0.0181	0.1636	1.2646	3.5541	2.9883	8.9209	27.7900 
518.097	-0.0122	0.1235	1.4175	3.6749	2.5214	9.5581	27.7800 
518.118	-0.0835	0.0630	1.4204	3.7738	2.0599	10.2393	27.7800 
518.137	-0.1577	-0.0293	1.1729	3.8068	1.7303	11.0468	27.8000 
518.157	-0.1255	-0.1191	1.0024	3.4827	1.5930	12.0190	27.7800 
518.178	-0.0264	-0.1670	0.8965	2.5159	1.6095	13.2385	27.7800 
518.197	0.0796	-0.2080	1.0078	1.3513	1.6040	14.7217	27.8000 
518.247	0.0913	-0.2075	1.1807	0.7635	1.5546	16.1719	27.7900 
518.249	0.0415	-0.1621	1.2031	0.5383	1.5381	17.5012	27.7800 
518.257	-0.0127	-0.1060	1.1597	0.3680	1.5436	18.9075	27.7900 
518.277	-0.0371	-0.0864	1.0859	0.2417	1.5765	20.4730	27.7900 
518.297	-0.0532	-0.1152	0.9946	0.1538	1.6699	22.1649	27.7900 
518.317	-0.0269	-0.1152	0.9512	0.0824	1.7798	23.9667	27.7700 
518.336	0.0073	-0.0986	0.9033	0.0604	1.8567	25.8948	27.7900 
518.356	0.0127	-0.1099	0.8921	0.1318	1.8951	27.9053	27.8000 
518.376	0.0000	-0.0840	0.8867	0.2417	1.9171	29.9652	27.8000 
518.397	-0.0024	-0.0786	0.8813	0.3735	1.9501	32.0306	27.7900 
518.440	0.0117	-0.0903	0.9072	0.5164	1.9885	34.2004	27.8000 
518.442	0.0288	-0.0718	0.9585	0.6482	2.0325	36.4471	27.7900 
518.457	0.0503	-0.0142	1.0264	0.7800	2.0764	38.7158	27.7900 
518.476	0.0674	-0.0024	1.0342	0.9888	2.0874	41.0010	27.7900 
518.496	0.0801	0.0132	1.0059	1.1810	2.0654	43.2532	27.8000 
518.516	0.0854	0.0332	0.9971	1.2964	2.0325	45.4230	27.7900 
518.535	0.0884	0.0498	1.0049	1.3843	2.0215	47.4884	27.7900 
518.556	0.0845	0.0381	0.9912	1.5216	2.0380	49.4769	27.7900 
518.575	0.0776	0.0601	0.9937	1.6754	2.1094	51.3336	27.7900 
518.632	0.0889	0.0679	0.9995	1.8237	2.2083	53.0695	27.7800 
518.634	0.1152	0.0933	1.0352	1.8732	2.3291	54.6570	27.7700 
518.635	0.1270	0.0864	1.0498	1.9830	2.4445	56.1237	27.7900 
518.655	0.1528	0.0767	1.0142	2.1698	2.5269	57.4310	27.7900 
518.675	0.1514	0.0713	1.0112	2.3346	2.5983	58.6011	27.7900 
518.695	0.1147	0.1323	1.0127	2.4390	2.6642	59.6008	27.8100 
518.715	0.0913	0.1680	1.0322	2.5983	2.7356	60.4523	27.8000 
518.735	0.0420	0.1396	1.1108	2.6807	2.8345	61.2268	27.8100 
518.755	0.0010	0.0859	1.2158	2.7356	2.9498	62.0343	27.7900 
518.774	-0.0718	0.0776	1.2290	3.0542	3.0927	62.8418	27.8000 
518.796	-0.1289	-0.0044	1.1704	3.4662	3.2959	63.6273	27.8100 
518.814	-0.1743	-0.0449	1.0313	3.6804	3.5760	64.4897	27.8200 
518.834	-0.1855	-0.0352	0.9336	3.4991	3.9276	65.3796	27.8100 
518.883	-0.2017	-0.1333	0.9458	2.9993	4.2627	66.4838	27.8200 
518.886	-0.2012	-0.1406	1.0801	2.3785	4.4769	67.8406	27.8200 
518.895	-0.1699	-0.1030	1.2295	1.9061	4.6527	69.1315	27.8200 
518.914	-0.0903	-0.0146	1.2275	1.6699	4.8505	70.1917	27.8000 
518.934	-0.0576	-0.0078	1.1250	1.4832	5.0153	71.0651	27.8100 
518.954	-0.0156	-0.0059	0.9990	1.3458	5.0922	71.8451	27.8300 
518.975	-0.0371	-0.0015	0.9492	1.2854	5.1031	72.5262	27.8300 
518.997	-0.1309	0.0327	0.8862	1.2579	5.1196	73.1085	27.8200 
519.013	-0.2056	0.0483	0.8462	1.2854	5.2075	73.5864	27.8200 
519.034	-0.2168	-0.0283	0.8140	1.2469	5.3613	74.0918	27.7900 
519.079	-0.1724	-0.0342	0.8467	1.0986	5.5261	74.6576	27.8100 
519.083	-0.1108	-0.0015	0.9053	0.8020	5.6635	75.1575	27.8000 
519.093	-0.0806	-0.0156	0.9360	0.5164	5.7568	75.6244	27.8000 
519.113	-0.0791	0.0229	0.9600	0.4340	5.8118	75.9979	27.7900 
519.133	-0.1157	0.0361	0.9717	0.4559	5.8447	76.2561	27.8000 
519.153	-0.1465	0.0552	0.9951	0.5219	5.8777	76.4594	27.7900 
519.173	-0.1338	0.0674	1.0020	0.5823	5.8777	76.6681	27.7900 
519.193	-0.1201	0.0874	0.9961	0.6042	5.8447	76.8219	27.8100 
519.213	-0.0972	0.1084	1.0313	0.8075	5.7678	76.8713	27.8100 
519.267	-0.0664	0.1143	1.0439	1.0327	5.6470	76.8713	27.8100 
519.269	-0.0674	0.1338	1.0684	1.3019	5.4822	76.7944	27.7900 
519.272	-0.1265	0.1089	1.0815	1.5820	5.2899	76.6626	27.8000 
519.293	-0.1602	0.0942	1.0737	1.8292	5.0867	76.5967	27.8000 
519.312	-0.1470	0.1201	1.0640	2.0325	4.8724	76.6022	27.7800 
519.332	-0.0933	0.1519	1.1587	2.1588	4.6472	76.6132	27.8000 
519.352	0.0239	0.0747	1.3418	2.3676	4.3176	76.6296	27.8000 
519.372	0.0430	0.0869	1.2881	2.8015	3.9001	76.5802	27.8000 
519.392	-0.0332	-0.0698	1.1787	3.3014	3.5101	76.5802	27.8200 
519.412	0.0308	-0.0820	1.1089	3.4827	3.1970	76.6956	27.8000 
519.465	0.0669	-0.1904	0.9893	3.3673	3.0157	77.0197	27.7900 
519.468	0.0737	-0.2671	0.9878	2.9773	2.8784	77.5195	27.8100 
519.473	0.0215	-0.1968	1.1113	2.3401	2.8510	77.9645	27.7900 
519.491	-0.0244	-0.1060	1.1699	1.6479	2.9388	78.3051	27.8100 
519.511	-0.0293	-0.0840	1.0938	1.1700	3.1366	78.6621	27.8100 
519.531	-0.0151	-0.0903	1.0044	0.8679	3.3893	79.1235	27.8000 
519.551	-0.0186	-0.0840	0.8887	0.5383	3.6969	79.6783	27.8000 
519.570	-0.0005	-0.0879	0.8442	0.1923	3.9771	80.3375	27.8100 
519.591	0.0005	-0.0996	0.8687	-0.0330	4.2517	81.0516	27.7900 
519.610	0.0254	-0.1030	0.8999	-0.1758	4.4934	81.7548	27.8000 
519.656	0.0723	-0.1152	0.9292	-0.2692	4.6857	82.4469	27.8200 
519.660	0.0972	-0.0747	0.9429	-0.4669	4.8230	83.1171	27.7900 
519.671	0.1069	-0.0454	0.9604	-0.4614	4.9054	83.6554	27.7900 
519.691	0.0962	-0.0605	0.9575	-0.2747	4.9603	84.1663	27.7900 
519.710	0.0669	-0.0156	0.9810	-0.2087	5.0317	84.6277	27.8000 
519.730	0.0786	0.0088	0.9995	-0.1593	5.1031	84.9792	27.8000 
519.750	0.0806	0.0117	1.0176	-0.0494	5.1691	85.2869	27.8200 
519.770	0.0698	0.0430	1.0273	0.1099	5.2350	85.5176	27.8200 
519.790	0.0439	0.0415	1.0298	0.2307	5.3009	85.7043	27.8100 
519.845	0.0386	0.0713	1.0430	0.3021	5.4108	85.8856	27.8200 
519.848	0.0356	0.0742	1.0435	0.5383	5.5481	86.0724	27.8100 
519.850	0.0552	0.0708	1.0493	0.8624	5.6744	86.2427	27.8000 
519.870	0.0791	0.0664	1.0430	1.1536	5.7678	86.3635	27.8200 
519.892	0.0776	0.0488	1.0361	1.3513	5.8612	86.4130	27.8200 
519.914	0.0449	0.0728	1.0537	1.5216	5.9875	86.3580	27.8200 
519.930	0.0093	0.1245	1.0698	1.6699	6.1469	86.2372	27.8100 
519.949	-0.0288	0.1670	1.0811	1.8237	6.3336	86.1438	27.8300 
519.969	-0.0508	0.1440	1.1294	2.0270	6.5314	86.1273	27.8100 
519.989	-0.0708	0.0981	1.2534	2.2687	6.7401	86.3086	27.8200 
520.009	-0.0430	0.0928	1.2261	2.6038	6.9269	86.5393	27.7900 
520.029	-0.0469	-0.0327	1.0547	2.8455	7.1027	86.6876	27.8200 
520.093	-0.1396	-0.1206	0.9551	2.7795	7.2839	86.8469	27.8200 
520.096	-0.2690	-0.1763	0.9590	2.3566	7.4323	87.2369	27.8000 
520.096	-0.2856	-0.1099	1.0869	1.9666	7.5201	87.7094	27.8200 
520.108	-0.2153	-0.0957	1.2334	1.5436	7.5861	88.1708	27.8200 
520.129	-0.0967	-0.0645	1.2446	1.1975	7.6080	88.5443	27.8200 
520.148	-0.0454	-0.0117	1.1309	0.9119	7.5037	88.7695	27.8200 
520.168	-0.0435	-0.0151	1.0239	0.5823	7.3169	88.9563	27.8100 
520.188	-0.0522	-0.0220	0.9287	0.3955	7.1027	89.2035	27.8300 
520.209	-0.1069	0.0015	0.8252	0.3516	6.9379	89.4122	27.7900 
520.228	-0.1348	0.0210	0.7808	0.4340	6.8225	89.5880	27.8100 
520.279	-0.1494	0.0234	0.7959	0.5603	6.7346	89.7363	27.8100 
520.282	-0.1318	0.0044	0.8081	0.7361	6.6522	89.8627	27.8200 
520.290	-0.0850	0.0225	0.8462	0.7855	6.5698	89.9506	27.8000 
520.308	-0.0684	0.0200	0.8604	0.8295	6.4545	90.0330	27.8000 
520.328	-0.0752	0.0459	0.9194	0.8020	6.3226	90.1044	27.8200 
520.349	-0.0859	0.0850	0.9512	0.8240	6.1798	90.1208	27.8200 
520.368	-0.0977	0.1123	0.9824	1.1700	6.0370	90.0604	27.8000 
520.387	-0.1035	0.1050	0.9897	1.5985	5.8832	90.0000	27.8200 
520.407	-0.0913	0.1079	0.9980	2.0105	5.7349	89.8901	27.8200 
520.427	-0.0703	0.1108	1.0396	2.3071	5.5920	89.7253	27.8100 
520.475	-0.0474	0.1743	1.1191	2.4280	5.4272	89.4617	27.8300 
520.477	-0.0757	0.1782	1.1470	2.5433	5.2350	89.1541	27.8200 
520.487	-0.1563	0.1899	1.1221	2.6807	5.0702	88.9343	27.8200 
520.507	-0.1587	0.1812	1.0986	2.8180	4.9329	88.7970	27.8100 
520.527	-0.0386	0.1167	1.2085	3.0487	4.7900	88.7036	27.8000 
520.547	0.0723	0.0747	1.3496	3.2959	4.5758	88.5388	27.8000 
520.567	0.0444	0.0107	1.2886	3.7189	4.2957	88.3575	27.8100 
520.587	0.0356	-0.0762	1.2412	4.0375	4.0155	88.3411	27.8300 
520.607	0.0503	-0.1240	1.0972	3.9771	3.8562	88.3850	27.8100 
520.626	0.0493	-0.2026	1.0132	3.6310	3.8562	88.4344	27.8000 
520.663	0.0415	-0.2314	1.0493	2.9773	3.9716	88.4235	27.8000 
520.666	0.0088	-0.1528	1.1680	2.3346	4.1418	88.2587	27.7900 
520.686	-0.0581	-0.0522	1.2065	2.0215	4.3781	88.0060	27.8100 
520.706	-0.0566	0.0005	1.1182	1.9061	4.6417	87.8247	27.8100 
520.726	-0.0313	-0.0044	0.9180	1.8677	4.9493	87.7588	27.8100 
520.745	-0.0146	-0.0190	0.8184	1.7963	5.2405	87.7753	27.7900 
520.766	0.0015	-0.0659	0.7866	1.6040	5.4932	87.8522	27.7900 
520.788	0.0146	-0.0771	0.8110	1.3513	5.7074	87.9840	27.7900 
520.806	0.0166	-0.0444	0.8667	1.1975	5.8832	88.1268	27.7800 
520.826	0.0181	-0.0117	0.8911	1.0657	6.0205	88.2861	27.7900 
520.845	0.0273	0.0020	0.9102	0.9448	6.1414	88.5004	27.8000 
520.865	0.0488	0.0000	0.9365	0.8295	6.2512	88.7970	27.8100 
520.912	0.0903	0.0161	0.9702	0.8295	6.3116	89.1321	27.7800 
520.917	0.0884	0.0391	0.9863	0.9283	6.3556	89.4067	27.7700 
520.926	0.0649	0.0615	0.9927	0.9393	6.4105	89.6155	27.7900 
520.945	0.0410	0.0762	0.9912	1.0052	6.4874	89.7638	27.7900 
520.965	0.0054	0.1221	1.0239	1.1426	6.5918	89.8846	27.7800 
520.985	-0.0166	0.1465	1.0537	1.3623	6.7126	90.0439	27.7600 
521.005	-0.0073	0.1030	1.0767	1.7468	6.8610	90.2856	27.7700 
521.027	0.0615	0.0708	1.0449	2.2467	7.0258	90.5109	27.7700 
521.045	0.1201	0.0557	1.0112	2.6312	7.1686	90.5823	27.7800 
521.108	0.0762	0.1987	1.0449	2.8235	7.2675	90.4449	27.7600 
521.110	-0.1074	0.1655	1.2300	2.8949	7.3499	90.3076	27.7500 
521.110	-0.2021	0.1069	1.3125	3.2410	7.4213	90.4395	27.7700 
521.124	-0.2285	-0.0620	1.0981	3.9056	7.5586	90.7416	27.7600 
521.144	-0.2407	-0.1074	1.0029	3.9221	7.8003	91.1261	27.7700 
521.164	-0.2627	-0.1719	1.0176	3.0981	8.0475	91.5216	27.7600 
521.184	-0.2417	-0.1548	1.0903	2.0160	8.1464	92.0544	27.7600 
521.204	-0.2007	-0.1382	1.3149	1.3348	8.0695	92.6917	27.7600 
521.224	-0.1519	-0.0859	1.3716	0.9778	7.9431	93.2574	27.7600 
521.244	-0.0713	0.0083	1.2295	0.9393	7.7563	93.6749	27.7600 
521.307	-0.0352	0.0122	1.0796	0.9723	7.4982	94.0485	27.7600 
521.309	-0.0278	0.0000	0.8955	1.1426	7.1960	94.3451	27.7500 
521.309	-0.0757	-0.0049	0.8081	1.3129	6.8994	94.6252	27.7500 
521.324	-0.1201	0.0024	0.7207	1.3184	6.6302	94.8615	27.7400 
521.343	-0.1260	-0.0171	0.7241	1.3898	6.3666	95.0372	27.7400 
521.363	-0.1133	0.0210	0.7861	1.3348	6.1688	95.0812	27.7400 
521.382	-0.1016	0.0000	0.8008	1.2415	5.9985	95.0372	27.7400 
521.403	-0.1152	0.0278	0.8369	1.0822	5.8612	94.9274	27.7300 
521.423	-0.1177	0.0322	0.8965	0.9448	5.7568	94.8175	27.7400 
521.443	-0.1240	0.0957	0.9497	0.7910	5.6360	94.7131	27.7200 
521.506	-0.1235	0.1172	0.9644	0.8020	5.4932	94.6088	27.7300 
521.509	-0.1118	0.0864	0.9878	1.0382	5.3174	94.5703	27.7300 
521.509	-0.0898	0.1367	1.0254	1.2030	5.1086	94.4824	27.7300 
521.522	-0.0703	0.1265	1.0479	1.4502	4.8999	94.3231	27.7300 
521.542	-0.0352	0.1040	1.0884	1.5930	4.6582	94.1528	27.7100 
521.562	-0.0532	0.1392	1.1079	1.7908	4.4055	93.9276	27.7300 
521.582	-0.1045	0.1382	1.1035	1.9446	4.1583	93.7354	27.7500 
521.602	-0.0991	0.1753	1.0928	2.1149	3.9166	93.5541	27.7500 
521.622	-0.0044	0.1709	1.1260	2.3126	3.6365	93.3179	27.7200 
521.642	0.0947	0.0781	1.2236	2.4884	3.2739	93.0157	27.7300 
521.694	0.0884	0.0400	1.2280	2.8345	2.8400	92.5818	27.7300 
521.697	0.0469	-0.0864	1.2080	3.1421	2.4719	92.1973	27.7100 
521.701	0.1274	-0.1348	1.1929	3.2080	2.2357	91.8127	27.7300 
521.721	0.1719	-0.2188	1.1465	3.0817	2.0929	91.6040	27.7100 
521.741	0.0366	-0.2173	1.1826	2.5763	2.0215	91.5491	27.7000 
521.761	-0.0757	-0.1001	1.2412	1.7798	2.1478	91.4117	27.7000 
521.781	-0.1206	-0.0566	1.2368	1.1755	2.4115	91.3019	27.7200 
521.802	-0.1069	-0.0020	1.1519	0.8954	2.8125	91.1646	27.7300 
521.821	-0.0146	0.0010	0.9204	0.6976	3.2739	91.0217	27.7200 
521.842	0.0566	0.0112	0.7876	0.4999	3.6914	90.9283	27.7200 
521.880	0.0684	-0.0220	0.7031	0.3241	4.0155	90.9393	27.7300 
521.881	0.0664	-0.0625	0.7173	0.0934	4.2627	91.0767	27.7300 
521.901	0.0503	-0.0728	0.8145	-0.1099	4.4824	91.2305	27.7100 
521.920	0.0439	-0.0679	0.8535	-0.2362	4.7186	91.3623	27.7200 
521.940	0.0620	-0.0439	0.9150	-0.2802	4.9548	91.5326	27.7200 
521.960	0.0737	-0.0269	0.9780	-0.3735	5.1581	91.7523	27.7300 
521.980	0.0874	-0.0059	1.0479	-0.4614	5.3119	92.0654	27.7200 
522.000	0.0679	0.0020	1.0635	-0.4944	5.4327	92.4335	27.7300 
522.020	0.0283	0.0391	1.0640	-0.5054	5.5316	92.8015	27.7100 
522.043	0.0015	0.0469	1.0527	-0.4889	5.6085	93.1201	27.7000 
522.060	-0.0313	0.1016	1.0356	-0.5219	5.7074	93.4277	27.7000 
522.080	-0.0425	0.1147	1.0239	-0.4614	5.8667	93.7354	27.6900 
522.116	-0.0376	0.0859	1.0132	-0.2417	6.0974	94.2133	27.7300 
522.120	-0.0029	0.0654	1.0435	0.0494	6.3391	94.7845	27.7100 
522.139	0.0742	0.0596	1.0386	0.5658	6.5149	95.3613	27.7000 
522.159	0.0942	0.0293	1.0166	0.9174	6.6467	95.8337	27.7000 
522.179	0.0361	0.1382	1.0068	1.0986	6.7676	96.1414	27.7000 
522.199	-0.0034	0.1802	0.9946	1.3019	6.8665	96.4215	27.6900 
522.219	-0.0581	0.0786	1.1289	1.6644	6.9214	96.8719	27.7000 
522.239	-0.1211	0.0449	1.2197	2.2852	6.9049	97.5916	27.7000 
522.259	-0.2085	-0.0615	1.2778	2.8125	6.8884	98.4595	27.7000 
522.304	-0.3008	-0.1538	1.2661	2.9224	6.9269	99.4263	27.7000 
522.307	-0.3442	-0.1187	1.0552	2.6093	7.1960	100.2008	27.7100 
522.319	-0.2725	-0.2100	0.9927	1.7029	7.5092	100.9149	27.7000 
522.339	-0.1792	-0.1245	1.2642	0.7031	7.7124	101.6016	27.7000 
522.359	-0.1484	-0.0381	1.3413	-0.1263	7.7838	102.1619	27.7000 
522.378	-0.1235	0.0200	1.2026	-0.4010	7.7234	102.6947	27.7000 
522.398	-0.1563	-0.0225	1.0127	-0.3296	7.5916	103.3759	27.6800 
522.418	-0.1704	-0.0522	0.8071	-0.3296	7.4707	104.0625	27.7000 
522.438	-0.1836	-0.1123	0.7441	-0.3461	7.4597	104.6503	27.7100 
522.498	-0.1548	-0.0840	0.8057	-0.6482	7.5641	105.0897	27.6900 
522.500	-0.1455	-0.0796	0.8564	-0.7526	7.6575	105.4083	27.7000 
522.500	-0.2305	-0.0693	0.8882	-0.8459	7.7234	105.7379	27.6900 
522.518	-0.2759	-0.0435	0.9136	-1.1646	7.8003	106.1609	27.6700 
522.538	-0.2925	-0.0142	0.9282	-1.4227	7.8772	106.6223	27.6700 
522.558	-0.2788	-0.0195	0.9365	-1.5765	7.9596	107.2266	27.6800 
522.578	-0.2202	0.0068	0.9717	-1.5930	8.0200	107.8693	27.6700 
522.601	-0.1978	0.0107	0.9688	-1.5656	8.0145	108.5065	27.6700 
522.617	-0.1743	0.0273	0.9668	-1.4008	7.9156	109.1162	27.6700 
522.638	-0.1807	0.0342	0.9604	-1.2030	7.7399	109.7150	27.6700 
522.693	-0.1943	0.0742	0.9751	-0.9668	7.5366	110.2917	27.6700 
522.697	-0.1768	0.0786	0.9844	-0.6702	7.3224	110.8081	27.6800 
522.699	-0.1436	0.0981	0.9780	-0.3516	7.0752	111.3190	27.6700 
522.717	-0.1299	0.0977	0.9727	0.0494	6.7841	111.8079	27.6700 
522.737	-0.1470	0.0757	0.9785	0.2637	6.4270	112.3462	27.6700 
522.757	-0.1641	0.0889	0.9966	0.4120	6.0315	112.9120	27.6800 
522.777	-0.1655	0.1157	1.0117	0.5713	5.6085	113.4668	27.6800 
522.796	-0.1323	0.1216	1.0127	0.7471	5.1251	114.0161	27.6600 
522.816	-0.1045	0.1260	1.0200	0.9613	4.5648	114.5654	27.6700 
522.836	-0.0620	0.0791	1.1377	1.2305	3.9441	115.1422	27.6600 
522.860	-0.0200	-0.0195	1.2842	1.5161	3.2574	115.7849	27.6700 
522.876	-0.0093	-0.0601	1.4834	1.8182	2.5653	116.5210	27.6800 
522.896	0.0029	0.0029	1.3154	2.1149	1.9666	117.3724	27.6900 
522.937	-0.0356	-0.1143	0.9248	1.9995	1.6095	118.4326	27.6700 
522.939	-0.0112	-0.1602	0.8325	1.2854	1.4063	119.7675	27.6900 
522.956	0.0127	-0.1553	1.0107	0.3680	1.2634	121.1353	27.6900 
522.976	-0.0073	-0.1279	1.1631	-0.2856	1.1810	122.4591	27.6800 
522.996	0.0073	-0.1016	1.1372	-0.4779	1.1591	123.7720	27.6700 
523.016	0.0283	-0.0835	1.0371	-0.4779	1.2085	125.0684	27.6900 
523.035	0.0688	-0.0122	0.9351	-0.3680	1.3129	126.3538	27.6700 
523.058	0.0879	-0.0425	0.8896	-0.3076	1.4282	127.7161	27.6700 
523.075	0.0933	-0.1167	0.9229	-0.4175	1.5161	129.2596	27.6700 
523.125	0.0737	-0.1040	0.9634	-0.5219	1.5875	130.8252	27.6900 
523.128	0.0884	-0.1084	1.0020	-0.6372	1.6754	132.3798	27.7000 
523.135	0.1128	-0.0845	1.0093	-0.7471	1.7743	133.8354	27.7000 
523.155	0.1270	-0.0615	0.9990	-0.7526	1.8622	135.1648	27.6800 
523.175	0.1152	-0.0352	0.9980	-0.6812	1.9556	136.4227	27.7000 
523.195	0.0903	-0.0352	0.9883	-0.6427	2.0654	137.5653	27.6900 
523.215	0.0684	-0.0298	0.9780	-0.5933	2.2083	138.6530	27.6900 
523.235	0.0688	-0.0054	1.0044	-0.4999	2.3621	139.6912	27.6800 
523.255	0.0850	0.0020	1.0347	-0.4285	2.5104	140.6909	27.6800 
523.275	0.0894	0.0205	1.0332	-0.4230	2.6477	141.6138	27.6900 
523.312	0.0913	0.0278	1.0308	-0.3461	2.8070	142.4927	27.6900 
523.315	0.0908	0.0513	1.0254	-0.2417	2.9773	143.3002	27.7000 
523.334	0.0884	0.0254	1.0205	-0.1483	3.1586	144.0802	27.7000 
523.353	0.0884	0.0127	1.0137	0.0165	3.3563	144.8108	27.7000 
523.374	0.0972	0.0400	0.9980	0.2252	3.5815	145.4095	27.7000 
523.394	0.1226	0.0386	0.9873	0.3571	3.7903	145.8490	27.6900 
523.414	0.0850	0.0444	0.9863	0.4504	4.0045	146.2775	27.7000 
523.434	0.0054	0.0840	1.0151	0.5603	4.2517	146.7609	27.6900 
523.454	-0.1206	-0.0073	1.1523	0.6812	4.5703	147.4695	27.7000 
523.509	-0.2778	-0.1338	1.4834	0.7141	4.8889	148.5461	27.7000 
523.513	-0.3164	-0.0601	1.5020	0.7910	5.3284	149.7162	27.6900 
523.515	-0.1641	0.0356	1.0562	0.6427	5.9052	150.7819	27.7100 
523.533	-0.0640	-0.0381	0.7539	0.4065	6.3831	151.7706	27.7000 
523.553	-0.1221	-0.2031	0.7881	0.1044	6.6193	153.0835	27.7000 
523.577	-0.1338	-0.2202	1.0283	-0.2307	6.6797	154.5996	27.7000 
523.593	-0.1318	-0.0732	1.2603	-0.3186	6.7621	155.8960	27.7000 
523.615	-0.1465	0.0132	1.1670	-0.1758	6.8719	157.0221	27.7000 
523.636	-0.1758	-0.0190	0.9575	-0.0110	6.9653	158.1427	27.7100 
523.653	-0.1558	-0.0381	0.8750	-0.0824	7.0422	159.2633	27.7000 
523.672	-0.1055	-0.0981	0.8315	-0.2362	7.0807	160.2960	27.7000 
523.692	-0.1343	-0.0894	0.8560	-0.4614	7.0862	161.3232	27.7000 
523.712	-0.1699	-0.0269	0.9268	-0.5713	7.0917	162.2955	27.7000 
523.747	-0.1914	0.0005	0.9751	-0.5658	7.1027	163.1525	27.6900 
523.752	-0.2007	-0.0176	0.9556	-0.5383	7.1521	163.9435	27.7100 
523.772	-0.1733	-0.0132	0.9429	-0.5109	7.2400	164.6851	27.7000 
523.792	-0.1558	-0.0347	0.9673	-0.5548	7.3224	165.3882	27.7200 
523.812	-0.1582	-0.0073	1.0103	-0.6866	7.3718	166.0693	27.7100 
523.832	-0.1636	0.0200	1.0322	-0.6647	7.3938	166.7065	27.7100 
523.853	-0.1597	0.0562	1.0112	-0.6921	7.3718	167.2998	27.7000 
523.876	-0.1431	0.0415	0.9702	-0.4285	7.3114	167.7942	27.7100 
523.892	-0.1597	0.0327	0.9517	-0.1428	7.2345	168.2666	27.7100 
523.939	-0.1641	0.0571	0.9810	-0.0769	7.1686	168.6731	27.7100 
523.941	-0.1597	0.0503	1.0142	-0.0055	7.0807	169.0247	27.7100 
523.951	-0.1611	0.0869	1.0659	-0.0055	6.9269	169.3158	27.6900 
523.971	-0.1758	0.0625	1.0703	0.0604	6.7401	169.6124	27.7000 
523.991	-0.2007	0.0366	1.0679	0.1593	6.5314	170.0079	27.7100 
524.011	-0.1895	0.0430	1.0815	0.2747	6.3391	170.4364	27.7100 
524.031	-0.1431	0.0645	1.1528	0.4175	6.1798	170.7990	27.7100 
524.051	-0.1055	0.0498	1.2246	0.5933	5.9875	171.0736	27.7000 
524.072	-0.0684	0.0547	1.2480	0.8295	5.7184	171.2384	27.7000 
524.090	-0.0718	-0.0557	1.2764	1.1426	5.4327	171.3647	27.7200 
524.127	-0.0098	-0.0840	1.3179	1.5106	5.1526	171.5076	27.7100 
524.131	0.0376	-0.0156	1.1011	1.7303	4.9548	171.6229	27.7000 
524.151	0.0166	-0.0938	0.8999	1.5436	4.8669	171.7987	27.7100 
524.170	0.0786	-0.1348	0.7925	1.1646	4.8560	171.9470	27.7100 
524.190	0.1226	-0.1719	0.8647	0.9174	4.8175	171.9250	27.7100 
524.211	0.0698	-0.1885	1.0869	0.8459	4.7296	171.9141	27.7000 
524.230	0.0288	-0.0996	1.1841	0.7855	4.6527	171.9196	27.7200 
524.250	0.0112	-0.0405	1.1094	0.7965	4.5703	172.0459	27.7000 
524.270	0.0059	-0.0518	1.0322	0.7910	4.5264	172.3206	27.7000 
524.314	0.0469	-0.0537	0.9751	0.6482	4.5099	172.6227	27.7000 
524.317	0.0933	-0.0444	0.9521	0.4944	4.4604	172.9083	27.7100 
524.329	0.1040	-0.0801	0.9360	0.4614	4.3506	173.2324	27.7200 
524.349	0.0928	-0.0664	0.9390	0.4340	4.1968	173.6005	27.7300 
524.369	0.0830	-0.0532	0.9248	0.4175	4.0155	173.9630	27.7100 
524.389	0.0806	-0.0557	0.9214	0.4175	3.8397	174.2981	27.6900 
524.410	0.0908	-0.0234	0.9648	0.5658	3.6859	174.5892	27.7100 
524.430	0.1011	-0.0205	0.9785	0.7581	3.5266	174.8639	27.7100 
524.449	0.1069	-0.0020	0.9893	0.8844	3.3893	175.1605	27.7100 
524.469	0.1147	-0.0034	1.0083	0.8679	3.2849	175.5066	27.7000 
524.489	0.1104	0.0669	1.0308	0.8130	3.2410	175.8417	27.7000 
524.509	0.0889	0.0659	1.0122	0.7965	3.2520	176.1932	27.7000 
524.553	0.0669	0.0615	0.9834	0.8185	3.3234	176.6052	27.7100 
524.555	0.0708	0.0903	0.9707	0.9174	3.4497	177.0447	27.7100 
524.569	0.0781	0.0796	0.9805	0.9448	3.6420	177.5500	27.7200 
524.589	0.0938	0.0889	0.9810	0.8514	3.8672	178.0444	27.7100 
524.609	0.0469	0.0767	0.9927	0.7855	4.1309	178.5168	27.7200 
524.629	0.0112	0.0664	0.9976	0.7416	4.4275	179.0552	27.7200 
524.648	-0.0186	0.0415	1.0649	0.5658	4.7131	179.6979	27.7200 
524.668	-0.0420	0.0112	1.0864	0.4065	4.9493	-179.5331	27.7200 
524.687	-0.0415	0.0498	1.0981	0.3406	5.1141	-178.6707	27.7100 
524.740	-0.0029	0.0317	1.0718	0.3131	5.2075	-177.7368	27.7100 
524.743	0.0718	0.0864	1.0273	0.4065	5.2350	-176.8085	27.7200 
524.747	0.1060	0.1089	1.0020	0.6537	5.2405	-175.9296	27.7100 
524.768	0.0928	0.1050	1.0747	1.0327	5.2240	-175.0562	27.7100 
524.787	0.0356	0.0522	1.1802	1.4447	5.1855	-173.9850	27.7100 
524.808	-0.0273	-0.0215	1.2808	1.8787	5.1196	-172.7600	27.7200 
524.827	-0.0869	-0.0415	1.2759	2.1753	5.0757	-171.5735	27.7300 
524.847	-0.2295	-0.1016	1.0986	2.1918	5.1306	-170.4309	27.7300 
524.867	-0.1899	-0.1440	0.9116	2.1533	5.2350	-169.3762	27.7200 
524.887	-0.0908	-0.1279	0.9619	2.1698	5.2954	-168.4479	27.7100 
524.934	0.0034	-0.1470	1.1401	1.9775	5.2240	-167.5635	27.7200 
524.939	0.0142	-0.0552	1.1597	1.7798	5.0812	-166.7285	27.7200 
524.947	-0.0313	0.0166	1.0771	1.7358	5.0098	-166.0309	27.7200 
524.967	-0.0264	0.0269	0.9556	1.8182	4.9933	-165.5145	27.7000 
524.987	-0.0063	-0.0103	0.8740	1.9940	4.9603	-165.2014	27.7100 
525.007	-0.0078	-0.0210	0.8296	2.0819	4.9054	-164.9927	27.7300 
525.026	-0.0376	-0.0352	0.8159	2.1094	4.8615	-164.8114	27.7100 
525.046	-0.0518	-0.0020	0.8687	2.0819	4.8779	-164.7125	27.7100 
525.066	-0.0400	0.0454	0.9351	1.9885	4.9548	-164.6906	27.7100 
525.123	-0.0386	0.0068	0.9966	1.8622	5.0537	-164.7400	27.7100 
525.129	-0.0566	-0.0122	1.0254	1.6479	5.1746	-164.8444	27.7200 
525.133	-0.0786	0.0396	1.0601	1.4172	5.3284	-164.9487	27.7100 
525.145	-0.0654	0.0405	1.0488	1.2909	5.4767	-165.0366	27.7100 
525.165	-0.0425	0.0596	1.0122	1.3184	5.5756	-165.1410	27.7100 
525.186	-0.0698	0.0688	0.9927	1.3678	5.6305	-165.2234	27.7200 
525.206	-0.1133	0.0938	0.9941	1.4886	5.6635	-165.2454	27.6900 
525.225	-0.1006	0.1279	0.9746	1.6589	5.6635	-165.2618	27.7000 
525.246	-0.0747	0.1064	0.9600	1.8073	5.6415	-165.3113	27.7000 
525.265	-0.0815	0.0718	0.9463	1.8677	5.6085	-165.4376	27.7100 
525.286	-0.1084	0.1284	1.0210	1.7249	5.6140	-165.6079	27.7100 
525.305	-0.1206	0.1489	1.0981	1.4557	5.6470	-165.7782	27.7200 
525.325	-0.0815	0.1479	1.1611	1.1646	5.6470	-165.8881	27.7300 
525.364	-0.0718	0.1025	1.1426	0.9998	5.6030	-165.9979	27.7000 
525.366	-0.0522	0.1499	1.1221	0.9833	5.5261	-166.1462	27.7000 
525.385	-0.0337	0.1470	1.1362	1.0217	5.3943	-166.3275	27.7100 
525.405	-0.0186	0.1226	1.1636	1.1041	5.2075	-166.6077	27.7100 
525.427	-0.0059	0.1416	1.1489	1.3129	4.9878	-166.9592	27.7100 
525.444	-0.0122	0.0254	1.0908	1.4337	4.7681	-167.2998	27.7000 
525.465	0.0029	-0.0820	0.9814	1.3843	4.5758	-167.6624	27.7100 
525.485	0.0610	-0.1050	0.9482	1.2250	4.4385	-168.1348	27.7100 
525.504	0.1133	-0.1733	0.9717	0.8899	4.3890	-168.6511	27.7100 
525.551	0.0884	-0.2344	1.0840	0.3735	4.4000	-169.1125	27.7200 
525.552	0.0117	-0.1484	1.2539	-0.1373	4.5099	-169.5959	27.7200 
525.564	-0.0142	-0.0845	1.2612	-0.5768	4.7461	-170.1233	27.7100 
525.584	0.0068	-0.0288	1.1216	-0.8569	5.0153	-170.6012	27.7000 
525.604	0.0024	0.0010	0.9858	-0.9723	5.2734	-171.0187	27.7000 
525.624	0.0103	-0.0317	0.8232	-1.0382	5.4932	-171.3757	27.7000 
525.644	0.0195	-0.0562	0.7920	-1.1151	5.6415	-171.6998	27.7000 
525.664	0.0254	-0.1152	0.8232	-1.2360	5.7568	-172.0184	27.7000 
525.684	0.0391	-0.1006	0.8784	-1.3953	5.8777	-172.4030	27.7100 
525.704	0.0537	-0.0352	0.9570	-1.4502	5.9875	-172.7820	27.7000 
525.740	0.0498	-0.0166	0.9844	-1.5381	6.0864	-173.1061	27.7000 
525.743	0.0313	-0.0029	0.9980	-1.5106	6.1743	-173.3862	27.6800 
525.763	0.0288	0.0303	1.0000	-1.3788	6.2677	-173.6115	27.6900 
525.783	0.0215	0.0171	0.9907	-1.2030	6.3556	-173.7653	27.6900 
525.803	0.0269	0.0010	1.0181	-1.0437	6.4105	-173.8751	27.7000 
525.823	0.0156	0.0381	1.0566	-1.0107	6.4655	-173.9630	27.7000 
525.843	0.0195	0.0786	1.0537	-1.0162	6.5533	-174.0344	27.6900 
525.863	0.0317	0.0762	1.0825	-0.8734	6.6742	-174.0784	27.6800 
525.883	0.0532	0.0566	1.0625	-0.6262	6.8005	-174.1058	27.6900 
525.902	0.1226	0.0098	1.0244	-0.3296	6.9214	-174.3036	27.6800 
525.923	0.1348	-0.0244	1.0146	-0.1978	6.9983	-174.6606	27.6800 
525.942	0.0239	0.1279	1.0737	-0.0494	7.0917	-174.9683	27.6800 
525.983	-0.0972	0.1016	1.1587	0.0659	7.2235	-175.0287	27.6700 
525.985	-0.2583	0.0479	1.2725	0.5273	7.4103	-174.7211	27.6800 
526.002	-0.2017	0.0015	1.2939	1.3129	7.6410	-174.2816	27.6800 
526.024	-0.1313	-0.0679	1.2144	1.7139	7.8937	-173.9355	27.6800 
526.042	-0.1440	-0.0571	1.0806	1.6370	8.1738	-173.7158	27.6700 
526.062	-0.1836	-0.1274	0.8701	1.0712	8.4155	-173.5675	27.6700 
526.082	-0.2437	-0.1470	0.9556	0.4065	8.5529	-173.2764	27.6500 
526.102	-0.2393	-0.0420	1.2744	0.0330	8.5748	-172.7325	27.6700 
526.122	-0.1431	-0.0381	1.2358	0.1593	8.4814	-172.1613	27.6500 
526.174	-0.0996	0.0015	1.0664	0.5328	8.3441	-171.7438	27.6400 
526.176	-0.1011	-0.0103	0.9292	0.8295	8.1738	-171.4032	27.6300 
526.181	-0.0728	-0.0366	0.8052	0.8459	7.9980	-171.1505	27.6500 
526.201	-0.0684	-0.0195	0.7959	0.7031	7.8333	-170.9802	27.6400 
526.222	-0.1118	-0.0200	0.8018	0.6262	7.6685	-170.8429	27.6400 
526.241	-0.1338	-0.0015	0.8428	0.6482	7.5201	-170.7440	27.6300 
526.261	-0.1519	0.0054	0.8599	0.6592	7.3938	-170.6946	27.6300 
526.281	-0.1299	-0.0024	0.8813	0.6537	7.3169	-170.7166	27.6500 
526.301	-0.1187	0.0205	0.9063	0.4999	7.3169	-170.8539	27.6300 
526.321	-0.1030	0.0576	0.9639	0.2692	7.3224	-171.0132	27.6400 
526.362	-0.1685	0.1172	1.0400	0.1538	7.2839	-171.0736	27.6300 
526.364	-0.1738	0.1235	1.0303	0.1538	7.2290	-170.9857	27.6400 
526.381	-0.1250	0.1167	0.9824	0.1648	7.1466	-170.9198	27.6300 
526.400	-0.0884	0.1147	0.9722	0.3900	7.0422	-170.9308	27.6400 
526.420	-0.0635	0.1416	0.9761	0.7141	6.9104	-171.0077	27.6300 
526.440	-0.0566	0.1660	1.0063	0.9174	6.7731	-171.1011	27.6300 
526.460	-0.1138	0.1553	1.0347	1.0657	6.6357	-171.1780	27.6100 
526.480	-0.1411	0.1475	1.0542	1.1481	6.5204	-171.1670	27.6300 
526.500	-0.1738	0.1216	1.0698	1.1700	6.4380	-171.1121	27.6200 
526.560	-0.1582	0.1343	1.0752	1.1371	6.3885	-171.0626	27.6100 
526.562	-0.0972	0.1748	1.0981	1.1426	6.3336	-171.0406	27.6200 
526.562	-0.0576	0.1748	1.1479	1.1865	6.2347	-171.0846	27.6200 
526.580	-0.0088	0.1226	1.3096	1.3184	6.0260	-171.2714	27.6100 
526.600	-0.0410	0.1284	1.3120	1.5875	5.7568	-171.5076	27.6100 
526.619	-0.0947	0.0112	1.2056	1.7798	5.5206	-171.5735	27.6200 
526.639	-0.0850	-0.0332	1.1138	1.7578	5.3723	-171.5460	27.6100 
526.659	-0.0405	-0.1025	0.9165	1.4557	5.3833	-171.5350	27.6100 
526.678	0.0249	-0.2061	0.8726	0.8020	5.4877	-171.6394	27.6100 
526.699	0.0776	-0.1987	0.9634	0.0385	5.6140	-171.9965	27.6200 
526.748	0.0400	-0.1792	1.1724	-0.5164	5.7019	-172.4854	27.6100 
526.752	0.0005	-0.1099	1.2402	-0.8679	5.7458	-172.9138	27.6100 
526.759	-0.0269	-0.0605	1.1675	-1.0712	5.8173	-173.1995	27.6000 
526.779	-0.0630	-0.0356	1.0571	-1.2030	5.9766	-173.3862	27.6000 
526.798	-0.0391	-0.0269	0.9160	-1.3953	6.1798	-173.5510	27.6100 
526.819	0.0010	-0.0283	0.8652	-1.6150	6.3446	-173.8092	27.6100 
526.838	0.0088	-0.0693	0.8291	-1.7029	6.4270	-174.0399	27.5900 
526.858	0.0122	-0.0640	0.8472	-1.6864	6.4655	-174.2157	27.6100 
526.878	0.0151	-0.0244	0.8813	-1.6425	6.4929	-174.3915	27.6000 
526.898	0.0103	-0.0103	0.9102	-1.6040	6.5204	-174.4958	27.6100 
526.922	0.0186	0.0078	0.9370	-1.5710	6.5588	-174.5618	27.6200 
526.938	0.0107	0.0107	0.9565	-1.4886	6.6138	-174.5892	27.6000 
526.999	0.0283	0.0571	0.9873	-1.4008	6.6797	-174.6002	27.5900 
527.001	0.0439	0.0713	0.9858	-1.2799	6.7072	-174.6277	27.5900 
527.001	0.0313	0.0635	0.9761	-1.0822	6.7346	-174.6881	27.5900 
527.018	0.0234	0.0918	0.9878	-0.9229	6.7896	-174.7540	27.6000 
527.038	-0.0083	0.1157	1.0166	-0.7251	6.8994	-174.7815	27.6000 
527.057	-0.0142	0.1128	1.0532	-0.4559	7.0477	-174.7540	27.5900 
527.077	0.0728	0.0864	1.0391	-0.0934	7.1796	-174.8529	27.6000 
527.097	0.0869	0.0186	0.9976	0.2142	7.2894	-175.1825	27.6000 
527.119	-0.0015	0.1807	1.0522	0.2802	7.3993	-175.6055	27.5900 
527.139	-0.1177	0.2363	1.1382	0.2417	7.5916	-175.8417	27.6000 
527.196	-0.2197	0.1099	1.2998	0.2582	7.8168	-175.7483	27.6000 
527.199	-0.1670	0.0244	1.2856	0.7581	8.0035	-175.5450	27.5900 
527.199	-0.1729	-0.1255	1.0737	1.1316	8.2068	-175.3528	27.6000 
527.217	-0.1953	-0.1973	1.0142	1.0822	8.4265	-175.2100	27.5900 
527.237	-0.2251	-0.1353	1.0181	0.2747	8.5913	-175.0946	27.5800 
527.257	-0.2358	-0.0859	1.1489	-0.5713	8.6462	-174.8529	27.5800 
527.276	-0.2051	-0.0967	1.3174	-0.9668	8.5199	-174.3201	27.5800 
527.296	-0.1240	-0.0889	1.2646	-0.9283	8.3057	-173.7598	27.5800 
527.316	-0.0884	-0.0029	1.0898	-0.7855	8.0585	-173.2928	27.5800 
527.339	-0.0869	0.0151	0.9780	-0.6372	7.8113	-172.8918	27.5900 
527.385	-0.0864	0.0010	0.8467	-0.6482	7.5641	-172.4744	27.6100 
527.387	-0.0884	-0.0103	0.8003	-0.7471	7.2784	-172.0294	27.5700 
527.396	-0.0972	0.0151	0.7969	-0.7251	6.9873	-171.6119	27.5700 
527.416	-0.1138	0.0225	0.8062	-0.6152	6.7291	-171.2219	27.5800 
527.436	-0.1055	0.0396	0.8228	-0.3955	6.5204	-170.8759	27.5600 
527.456	-0.0776	0.0366	0.8291	-0.2032	6.3556	-170.6232	27.5700 
527.476	-0.0405	0.0156	0.8745	-0.1154	6.2018	-170.4968	27.5600 
527.495	-0.0508	0.0635	0.9189	-0.2142	6.0315	-170.4144	27.5500 
527.515	-0.1177	0.0830	0.9683	-0.1208	5.9106	-170.2991	27.5500 
527.537	-0.1377	0.0889	0.9609	-0.0714	5.7953	-170.1288	27.5500 
527.574	-0.1216	0.1172	0.9990	-0.0604	5.6909	-169.9860	27.5600 
527.576	-0.1172	0.1270	1.0405	0.1208	5.5920	-169.9091	27.5500 
527.595	-0.0786	0.1558	1.1079	0.3406	5.4822	-169.8926	27.5400 
527.615	-0.0801	0.1533	1.1079	0.6702	5.3448	-169.9640	27.5400 
527.635	-0.1284	0.1362	1.0454	0.9613	5.1910	-169.9585	27.5500 
527.655	-0.1348	0.1597	1.0474	1.2085	5.0317	-169.7937	27.5500 
527.675	-0.0752	0.1279	1.1689	1.2909	4.8395	-169.6124	27.5300 
527.695	0.0425	0.0815	1.3354	1.3293	4.5593	-169.6948	27.5400 
527.715	0.0889	0.0278	1.3262	1.6919	4.1583	-170.1178	27.5500 
527.766	0.0801	-0.1133	1.2930	2.1698	3.7354	-170.6287	27.5400 
527.771	0.1182	-0.0361	1.1211	2.3621	3.3948	-171.1395	27.5200 
527.776	0.0981	-0.1548	0.9600	2.2357	3.1970	-171.5240	27.5400 
527.794	0.0581	-0.2119	1.0068	1.5381	3.1311	-171.9250	27.5400 
527.814	-0.0015	-0.1523	1.1484	0.5658	3.1366	-172.3700	27.5500 
527.834	-0.0723	-0.0044	1.2334	-0.2087	3.2465	-172.8259	27.5300 
527.854	-0.0591	0.0303	1.1533	-0.4175	3.4113	-173.1720	27.5200 
527.874	0.0078	-0.0054	0.9429	-0.2252	3.6145	-173.4521	27.5300 
527.893	0.0562	-0.0391	0.8325	-0.0494	3.8123	-173.7543	27.5300 
527.913	0.0713	-0.0605	0.7734	-0.0659	3.9606	-174.0234	27.5300 
527.937	0.0557	-0.0493	0.8066	-0.1373	4.0649	-174.2267	27.5100 
527.953	0.0586	-0.0225	0.8896	-0.1978	4.1473	-174.3805	27.5200 
528.003	0.0483	-0.0112	0.8989	-0.2747	4.2023	-174.4958	27.5300 
528.005	0.0474	-0.0024	0.8901	-0.2362	4.2792	-174.6002	27.5200 
528.013	0.0762	-0.0146	0.9063	-0.1373	4.3835	-174.6881	27.5400 
528.033	0.0845	0.0127	0.9268	-0.1868	4.4879	-174.7156	27.5200 
528.053	0.0786	0.0459	0.9790	-0.1813	4.5923	-174.7540	27.5200 
528.073	0.0732	0.0728	1.0093	-0.0989	4.6857	-174.8419	27.5200 
528.093	0.0781	0.0986	1.0225	0.0110	4.7626	-174.9683	27.5200 
528.113	0.0586	0.1226	1.0308	0.1208	4.8450	-175.1001	27.5200 
528.133	0.0181	0.1357	1.0156	0.2747	4.9603	-175.1550	27.5200 
528.153	-0.0024	0.1436	1.0264	0.4779	5.1306	-175.1001	27.5200 
528.189	0.0229	0.1309	1.0649	0.7965	5.3394	-174.9902	27.5100 
528.192	0.1035	0.0825	1.0396	1.1371	5.5206	-175.1001	27.5200 
528.212	0.0835	0.0234	1.0269	1.2469	5.6964	-175.4681	27.5300 
528.232	0.0156	0.1611	1.0923	1.1865	5.8612	-175.7043	27.5200 
528.252	-0.0850	0.2256	1.1860	1.0876	6.0260	-175.6769	27.5200 
528.272	-0.1519	0.1582	1.2759	1.4117	6.2183	-175.3857	27.5100 
528.291	-0.1719	0.0430	1.1528	1.8951	6.4545	-174.9518	27.5100 
528.312	-0.1353	-0.0801	1.0278	2.2302	6.7621	-174.6222	27.5000 
528.331	-0.1631	-0.1714	0.9980	1.9391	7.1191	-174.5068	27.4900 
528.387	-0.1665	-0.1431	1.0449	1.1426	7.3993	-174.4299	27.5100 
528.391	-0.1963	-0.0659	1.2339	0.1868	7.4817	-174.2651	27.5000 
528.393	-0.1499	-0.0098	1.3579	-0.3021	7.4213	-173.9575	27.5100 
528.411	-0.0977	-0.0005	1.2373	-0.3296	7.2455	-173.5840	27.5000 
528.431	-0.0664	0.0425	1.1069	-0.3076	7.0313	-173.2764	27.5000 
528.451	-0.0449	0.0156	0.9160	-0.2966	6.7731	-173.0237	27.5000 
528.471	-0.0483	0.0156	0.8203	-0.3680	6.4709	-172.8094	27.5100 
528.491	-0.0796	0.0127	0.7495	-0.5054	6.1633	-172.5513	27.5000 
528.511	-0.0835	0.0068	0.7554	-0.5219	5.8557	-172.2766	27.4900 
528.531	-0.1118	0.0239	0.7905	-0.3571	5.5920	-172.0569	27.5000 
528.574	-0.1353	0.0142	0.8110	-0.2142	5.4053	-171.8207	27.5000 
528.579	-0.1152	0.0166	0.8633	-0.1813	5.3339	-171.6174	27.4900 
528.591	-0.0918	0.0425	0.9282	-0.3241	5.3119	-171.5076	27.4800 
528.610	-0.0752	0.0894	0.9844	-0.5109	5.2679	-171.4362	27.4800 
528.630	-0.0874	0.1123	0.9839	-0.4614	5.2295	-171.3318	27.4800 
528.650	-0.1001	0.1089	0.9839	-0.3900	5.1801	-171.1670	27.4800 
528.670	-0.1011	0.1377	1.0098	-0.2032	5.1141	-170.9912	27.4600 
528.690	-0.0928	0.1245	1.0425	0.0824	5.0537	-170.8594	27.5000 
528.709	-0.0610	0.1206	1.0542	0.2527	4.9713	-170.8099	27.4900 
528.730	-0.0645	0.1367	1.0835	0.5054	4.8505	-170.8044	27.4900 
528.752	-0.1084	0.1294	1.0688	0.6812	4.7296	-170.6726	27.4800 
528.769	-0.1343	0.1724	1.0718	0.8020	4.6472	-170.3705	27.4700 
528.825	-0.0884	0.1689	1.1509	0.8954	4.5648	-170.0739	27.4800 
528.829	0.0532	0.1016	1.3599	1.0327	4.3890	-170.0793	27.4700 
528.835	0.0586	0.0840	1.3633	1.3953	4.1309	-170.3430	27.4700 
528.851	0.0342	-0.0625	1.2329	1.8457	3.8837	-170.6781	27.4900 
528.870	0.0659	-0.0962	1.1074	2.0874	3.6914	-170.9967	27.4800 
528.888	0.0586	-0.1890	0.9595	1.7908	3.6200	-171.2494	27.4700 
528.909	0.0503	-0.1821	1.0132	1.0382	3.6804	-171.5295	27.4900 
528.929	0.0425	-0.0923	1.1782	0.3406	3.8287	-171.9141	27.4800 
528.953	0.0000	-0.0542	1.2188	-0.1099	4.0320	-172.3096	27.4800 
528.969	-0.0186	-0.0122	1.1162	-0.1758	4.2682	-172.6282	27.4700 
529.023	-0.0059	0.0103	0.9941	-0.0934	4.5154	-172.9248	27.4800 
529.025	-0.0029	-0.0068	0.8276	-0.0549	4.7681	-173.1555	27.4900 
529.029	0.0063	-0.0225	0.7700	-0.1428	5.0208	-173.3588	27.4800 
529.049	0.0107	-0.0557	0.7939	-0.2966	5.2350	-173.5730	27.4900 
529.068	0.0117	-0.0396	0.8618	-0.4614	5.4382	-173.8202	27.5100 
529.088	0.0293	-0.0210	0.9023	-0.5713	5.6195	-174.0454	27.4900 
529.108	0.0425	-0.0195	0.9238	-0.7141	5.7843	-174.2102	27.5000 
529.127	0.0542	-0.0122	0.9551	-0.9393	5.9106	-174.2981	27.4900 
529.149	0.0532	0.0078	0.9951	-1.1755	6.0205	-174.3365	27.4900 
529.167	0.0317	0.0684	1.0327	-1.2415	6.0974	-174.3750	27.4900 
529.214	0.0225	0.0625	1.0234	-1.0986	6.1578	-174.4409	27.4900 
529.216	0.0132	0.0752	0.9956	-0.8624	6.2128	-174.5068	27.5100 
529.228	0.0054	0.0991	0.9907	-0.6921	6.2842	-174.5618	27.5100 
529.248	-0.0054	0.1270	1.0103	-0.6207	6.3831	-174.5288	27.5000 
529.268	-0.0015	0.1543	1.0493	-0.5933	6.5094	-174.4244	27.5000 
529.288	0.0093	0.1284	1.0703	-0.4175	6.6522	-174.3146	27.4900 
529.308	0.0747	0.1011	1.0439	-0.1538	6.7786	-174.4080	27.4900 
529.328	0.1011	0.0654	1.0171	0.0824	6.8719	-174.7650	27.5000 
529.349	0.0371	0.1416	1.0410	0.2802	6.9269	-175.1221	27.5000 
529.404	-0.0337	0.2295	1.0669	0.5548	7.0313	-175.2869	27.5000 
529.406	-0.0894	0.1509	1.1948	0.9009	7.1466	-175.1880	27.5200 
529.407	-0.1128	0.0825	1.2349	1.4667	7.2455	-174.8584	27.5200 
529.427	-0.1777	-0.0571	1.0933	1.9995	7.3938	-174.4080	27.5000 
529.448	-0.2661	-0.1655	1.0449	1.9556	7.6630	-174.0289	27.5200 
529.467	-0.3276	-0.1914	1.0767	1.4117	7.9871	-173.7543	27.5100 
529.486	-0.2754	-0.1230	1.1460	0.8240	8.2068	-173.5016	27.5200 
529.506	-0.1802	-0.0664	1.3394	0.1813	8.2672	-173.2654	27.5100 
529.526	-0.0786	-0.0161	1.3452	-0.0439	8.1628	-172.9138	27.5200 
529.546	-0.0586	0.0298	1.1499	0.0549	7.9211	-172.5787	27.5000 
529.603	-0.1011	0.0112	1.0078	-0.0385	7.6630	-172.1777	27.5000 
529.608	-0.0933	0.0015	0.8408	-0.0494	7.4213	-171.7822	27.4900 
529.609	-0.0869	0.0083	0.7827	-0.0275	7.2180	-171.4856	27.4900 
529.626	-0.0869	0.0088	0.7593	0.1868	7.0642	-171.2659	27.4800 
529.647	-0.0874	0.0347	0.7852	0.4120	6.9269	-171.1011	27.5000 
529.665	-0.0991	0.0313	0.8345	0.6537	6.8115	-170.9802	27.4800 
529.686	-0.0889	0.0522	0.8584	0.8130	6.6852	-170.9033	27.5000 
529.705	-0.0825	0.0610	0.8784	0.8569	6.5424	-170.8868	27.4900 
529.725	-0.0952	0.0669	0.9028	0.8569	6.3721	-170.8484	27.4900 
529.745	-0.1172	0.0698	0.9351	0.9229	6.2128	-170.7825	27.5000 
529.766	-0.1333	0.0977	0.9600	0.9723	6.0864	-170.6781	27.4900 
529.785	-0.1265	0.1440	0.9961	1.0437	6.0040	-170.5518	27.5000 
529.806	-0.1138	0.1563	0.9795	1.2085	5.9271	-170.3925	27.5000 
529.843	-0.0840	0.1587	0.9780	1.4392	5.8118	-170.2277	27.4900 
529.845	-0.0645	0.1719	1.0264	1.6589	5.6305	-170.1068	27.5000 
529.864	-0.0508	0.1782	1.1104	1.8622	5.3888	-170.0354	27.4900 
529.885	-0.1016	0.1763	1.1143	2.0270	5.1581	-169.9036	27.4900 
529.905	-0.1396	0.1748	1.0894	2.0764	4.9988	-169.5685	27.4900 
529.925	-0.0854	0.2148	1.1084	2.0929	4.8450	-169.2499	27.4800 
529.944	-0.0127	0.1982	1.1890	2.2357	4.6362	-169.0521	27.4700 
529.967	0.0503	0.1357	1.2983	2.4445	4.3396	-169.1071	27.4900 
529.984	0.0000	0.1167	1.1968	2.7521	4.0045	-169.3542	27.4900 
530.039	-0.0620	-0.0093	1.1240	3.0157	3.7354	-169.4861	27.4800 
530.041	0.0000	-0.0737	1.0181	2.8949	3.5651	-169.5245	27.5000 
530.044	0.0781	-0.1362	0.9971	2.3676	3.5046	-169.6289	27.4900 
530.064	0.1455	-0.2148	1.0728	1.6699	3.5266	-169.8651	27.4900 
530.086	0.0776	-0.1763	1.1797	0.9833	3.6255	-170.2277	27.4700 
530.104	-0.0498	-0.0503	1.2412	0.4175	3.7958	-170.5573	27.4900 
530.124	-0.0596	-0.0181	1.1992	0.1263	4.0210	-170.7660	27.4900 
530.144	-0.0225	0.0142	1.0410	0.0330	4.3121	-170.9198	27.4900 
530.166	0.0049	0.0132	0.9194	-0.0549	4.6143	-171.0901	27.4900 
530.183	0.0376	-0.0225	0.7998	-0.2637	4.8669	-171.3263	27.4900 
530.228	0.0361	-0.0176	0.7871	-0.5219	5.0647	-171.5955	27.5000 
530.230	0.0146	-0.0078	0.8340	-0.5878	5.2295	-171.8372	27.4900 
530.243	0.0249	-0.0200	0.8501	-0.5988	5.3833	-172.0624	27.4900 
530.263	0.0454	-0.0049	0.8994	-0.5603	5.5371	-172.3041	27.5000 
530.283	0.0459	-0.0015	0.9297	-0.5219	5.6909	-172.4908	27.5000 
530.303	0.0356	0.0029	0.9961	-0.5383	5.8118	-172.5842	27.5100 
530.323	0.0244	0.0308	1.0264	-0.6317	5.9161	-172.6337	27.4900 
530.343	0.0269	0.0718	1.0493	-0.7361	5.9875	-172.6556	27.4900 
530.364	0.0269	0.0801	1.0508	-0.7745	6.0370	-172.7161	27.4900 
530.418	0.0186	0.0845	1.0356	-0.7581	6.0919	-172.7545	27.5000 
530.420	-0.0034	0.1099	1.0313	-0.6207	6.1798	-172.7161	27.4900 
530.422	-0.0239	0.1362	1.0459	-0.4559	6.3116	-172.5348	27.5000 
530.442	0.0000	0.0850	1.0479	-0.2802	6.4490	-172.3260	27.5100 
530.462	0.0801	0.0420	1.0039	-0.0549	6.5698	-172.3206	27.5100 
530.482	0.0894	0.0273	0.9766	0.0385	6.6962	-172.5183	27.5000 
530.502	0.0015	0.1958	1.0200	0.0934	6.8335	-172.6996	27.5000 
530.522	-0.0811	0.1714	1.1030	0.2417	6.9873	-172.6117	27.4900 
530.542	-0.1626	0.0791	1.2251	0.6042	7.1466	-172.1722	27.4800 
530.561	-0.1387	0.0249	1.1733	1.1041	7.3059	-171.6614	27.5000 
530.582	-0.1362	-0.0688	1.1353	1.2799	7.5201	-171.3208	27.4900 
530.601	-0.2456	-0.1162	1.0410	0.7306	7.7509	-171.0297	27.5000 
530.621	-0.2861	-0.1670	1.0234	0.0110	7.9431	-170.7275	27.5000 
530.661	-0.2544	-0.1333	1.1636	-0.6427	8.0090	-170.2991	27.4900 
530.663	-0.1797	-0.0420	1.3232	-1.1316	7.9980	-169.9036	27.4900 
530.681	-0.0918	-0.0117	1.2739	-1.2305	7.8992	-169.5740	27.4900 
530.701	-0.0728	0.0137	1.1689	-1.3458	7.7179	-169.2279	27.5100 
530.721	-0.0503	0.0029	0.9404	-1.3293	7.4597	-169.0192	27.5100 
530.741	-0.1016	-0.0215	0.8062	-1.4777	7.2290	-168.7775	27.5000 
530.761	-0.1279	-0.0151	0.7559	-1.7084	7.0807	-168.4808	27.5000 
530.781	-0.1460	-0.0146	0.7876	-1.7633	6.9708	-168.1732	27.5100 
530.801	-0.1377	-0.0088	0.8418	-1.7633	6.8719	-167.9095	27.5000 
530.854	-0.1426	-0.0098	0.8662	-1.6974	6.7731	-167.6788	27.4900 
530.857	-0.1309	0.0117	0.8921	-1.5820	6.7017	-167.4756	27.4900 
530.860	-0.1338	0.0103	0.9258	-1.5875	6.6577	-167.2504	27.5000 
530.882	-0.1504	0.0522	0.9688	-1.6644	6.6028	-166.9263	27.5000 
530.900	-0.1436	0.0889	0.9771	-1.5930	6.5204	-166.5417	27.5100 
530.920	-0.1255	0.0737	0.9419	-1.3843	6.3885	-166.1298	27.5100 
530.940	-0.1094	0.0879	0.9351	-1.2140	6.2402	-165.7343	27.5000 
530.959	-0.0898	0.0991	0.9619	-0.8679	6.0754	-165.4047	27.5000 
530.982	-0.0942	0.0850	1.0044	-0.6372	5.8777	-165.1520	27.4900 
531.003	-0.1060	0.1387	1.0864	-0.3790	5.6470	-164.9048	27.5100 
531.043	-0.1196	0.1323	1.0991	-0.1703	5.4218	-164.6191	27.4900 
531.045	-0.1230	0.1045	1.0859	0.0549	5.2020	-164.2621	27.5000 
531.059	-0.1069	0.1099	1.0791	0.2087	4.9713	-163.8940	27.5000 
531.079	-0.0322	0.1494	1.1084	0.2582	4.6692	-163.6029	27.5100 
531.099	0.0308	0.1157	1.2178	0.2966	4.2572	-163.5040	27.5000 
531.119	0.0923	0.1265	1.3242	0.6427	3.6914	-163.7018	27.5000 
531.139	-0.0093	0.0352	1.2578	1.1371	3.1091	-163.9874	27.5000 
531.159	-0.0762	-0.0278	1.1455	1.5930	2.7191	-164.1962	27.5000 
531.179	-0.0112	-0.0459	1.0352	1.7303	2.4829	-164.2291	27.5200 
531.241	0.1289	-0.1807	0.9941	1.4063	2.3511	-164.3060	27.5100 
531.243	0.1245	-0.2178	1.0552	0.7745	2.2632	-164.4543	27.5100 
531.243	-0.0005	-0.1230	1.2090	0.1593	2.2632	-164.5422	27.5300 
531.260	-0.0688	-0.0356	1.2241	-0.2032	2.3676	-164.4818	27.5100 
531.278	-0.0410	0.0015	1.1118	-0.2527	2.5763	-164.2896	27.5200 
531.298	0.0063	-0.0005	0.9829	-0.3241	2.8619	-164.1577	27.5100 
531.318	0.0508	-0.0352	0.8271	-0.3790	3.1531	-164.0863	27.5200 
531.338	0.0479	-0.0557	0.7896	-0.3900	3.3783	-163.9819	27.5100 
531.358	0.0400	-0.0547	0.8330	-0.4065	3.5376	-163.8281	27.5000 
531.378	0.0503	-0.0186	0.8809	-0.4559	3.6804	-163.6853	27.5000 
531.439	0.0605	-0.0044	0.9141	-0.5109	3.7958	-163.5260	27.5100 
531.441	0.0737	-0.0142	0.9297	-0.5219	3.8727	-163.3447	27.5100 
531.441	0.0869	0.0210	0.9790	-0.4724	3.9111	-163.1305	27.5000 
531.457	0.0884	0.0347	1.0039	-0.3296	3.9441	-162.9053	27.5100 
531.477	0.0850	0.0479	1.0210	-0.1099	3.9606	-162.7020	27.5000 
531.497	0.0757	0.0874	1.0278	0.1154	3.9661	-162.5372	27.5100 
531.517	0.0596	0.1162	1.0049	0.3516	3.9551	-162.3669	27.5100 
531.537	0.0366	0.1045	1.0010	0.5273	3.9606	-162.1582	27.4900 
531.557	0.0303	0.1265	1.0068	0.6757	4.0320	-161.8781	27.5000 
531.577	0.0444	0.1289	1.0127	0.8240	4.1309	-161.6034	27.5100 
531.629	0.0786	0.0967	1.0122	0.9723	4.2133	-161.4001	27.5200 
531.632	0.1006	0.0713	0.9873	1.1646	4.2792	-161.3068	27.5100 
531.636	0.0918	0.0566	0.9863	1.2415	4.3506	-161.3837	27.5200 
531.656	0.0439	0.1294	1.0093	1.3019	4.4220	-161.4056	27.5000 
531.677	-0.0054	0.1768	1.0991	1.4557	4.5099	-161.1804	27.5000 
531.697	-0.0479	0.1011	1.2051	1.6040	4.6033	-160.8563	27.5100 
531.716	-0.0649	0.1011	1.2070	1.7303	4.7021	-160.4333	27.5200 
531.736	-0.1064	-0.0068	1.1221	1.8127	4.8120	-159.9884	27.5100 
531.756	-0.1978	-0.1030	1.0322	1.6205	4.9384	-159.5599	27.5100 
531.776	-0.2231	-0.1084	0.9463	1.0822	5.1196	-159.1919	27.5100 
531.797	-0.2085	-0.1855	1.0308	0.1813	5.3064	-158.8348	27.5000 
531.816	-0.2163	-0.1372	1.2510	-0.5438	5.3778	-158.2855	27.5000 
531.885	-0.1753	-0.0664	1.3916	-0.9174	5.3558	-157.5275	27.5100 
531.887	-0.1094	-0.0405	1.2769	-1.1316	5.3119	-156.7804	27.5100 
531.887	-0.1206	-0.0371	1.1318	-1.4612	5.2240	-156.0333	27.4900 
531.898	-0.0757	-0.0112	0.9907	-1.6534	5.1251	-155.2863	27.5000 
531.916	-0.0649	-0.0449	0.9351	-1.6754	4.9933	-154.5007	27.5000 
531.936	-0.1084	-0.0508	0.8818	-1.6919	4.8560	-153.6932	27.5000 
531.955	-0.1274	-0.0293	0.8560	-1.5656	4.7351	-152.7869	27.5200 
531.976	-0.1328	-0.0044	0.8276	-1.4008	4.6033	-151.7706	27.5100 
531.998	-0.1284	-0.0171	0.8315	-1.3623	4.4714	-150.6500	27.4900 
532.015	-0.1313	-0.0029	0.8662	-1.3458	4.3286	-149.4360	27.4900 
532.037	-0.1533	0.0190	0.8882	-1.3678	4.1858	-148.0682	27.4800 
532.086	-0.1499	0.0117	0.8906	-1.1975	4.0430	-146.5302	27.5100 
532.088	-0.1353	0.0283	0.8975	-1.1426	3.8562	-144.9261	27.5100 
532.095	-0.1128	0.0181	0.9355	-0.9558	3.6475	-143.3551	27.5000 
532.116	-0.1006	0.0195	0.9771	-0.7251	3.4113	-141.8555	27.5100 
532.134	-0.1079	0.0518	1.0420	-0.3680	3.1696	-140.2899	27.4800 
532.154	-0.1563	0.0386	1.0596	-0.0659	2.9663	-138.5870	27.4900 
532.174	-0.1440	0.0557	1.0737	0.1483	2.7795	-136.8347	27.5000 
532.194	-0.1177	0.0435	1.0566	0.3845	2.5488	-135.1154	27.5000 
532.214	-0.0283	0.0815	1.0879	0.6702	2.2357	-133.4509	27.5000 
532.234	0.0449	0.0981	1.1318	0.9064	1.8182	-131.9128	27.4900 
532.291	0.1338	-0.0073	1.2456	1.1316	1.2634	-130.5341	27.4800 
532.294	0.0762	-0.0483	1.3008	1.5271	0.7251	-129.2322	27.4800 
532.297	-0.0337	-0.1348	1.2031	1.6974	0.3186	-127.7545	27.4900 
532.314	-0.0288	-0.1396	1.1021	1.5051	0.0604	-126.0626	27.4900 
532.333	-0.0273	-0.1367	1.0684	0.8295	0.0055	-124.2993	27.5000 
532.354	-0.0215	-0.2070	1.1064	-0.1263	0.0439	-122.4921	27.5000 
532.373	-0.0156	-0.1528	1.1826	-0.9723	0.1483	-120.6299	27.5000 
532.393	0.0083	-0.1245	1.1826	-1.2415	0.3406	-118.7567	27.4800 
532.413	0.0859	-0.0752	1.0420	-1.1041	0.5219	-116.8726	27.4900 
532.433	0.1128	-0.0581	0.9395	-0.7690	0.6921	-115.0104	27.4800 
532.480	0.0874	-0.1074	0.8354	-0.7031	0.8844	-113.1097	27.4900 
532.482	0.0566	-0.1006	0.8530	-0.8734	1.0876	-111.1761	27.4900 
532.493	-0.0010	-0.1270	0.8994	-1.0712	1.3129	-109.2096	27.4900 
532.513	0.0078	-0.1060	0.9487	-0.8899	1.5216	-107.3364	27.5000 
532.532	0.0586	-0.1621	0.9824	-0.6702	1.7084	-105.5017	27.4800 
532.553	0.1035	-0.0977	1.0244	-0.7196	1.8402	-103.6340	27.5000 
532.573	0.0962	-0.0425	1.0254	-0.6592	1.9226	-101.8103	27.5000 
532.592	0.0815	-0.0444	1.0225	-0.5109	1.9995	-100.0745	27.5000 
532.613	0.0957	0.0054	1.0337	-0.2911	2.0984	-98.4540	27.5000 
532.671	0.0840	-0.0181	1.0166	0.2252	2.2357	-96.9818	27.4900 
532.673	0.0796	-0.0034	1.0029	0.4175	2.3785	-95.6250	27.4900 
532.673	0.0801	0.0176	0.9980	0.6317	2.5159	-94.3781	27.5000 
532.692	0.0874	0.0200	0.9819	0.8020	2.6367	-93.2629	27.4900 
532.712	0.0840	0.0176	0.9849	0.9119	2.7466	-92.2577	27.4900 
532.731	0.0513	0.0000	1.0083	0.9064	2.8729	-91.3348	27.5100 
532.752	0.0596	0.0190	1.0361	0.8679	3.0103	-90.4669	27.4800 
532.772	0.0908	0.0254	1.0332	0.9338	3.1476	-89.6429	27.5000 
532.791	0.1001	0.0000	1.0405	0.9998	3.2739	-88.9618	27.4900 
532.812	0.0845	0.0581	1.0566	1.0327	3.4058	-88.3081	27.4800 
532.870	0.0801	0.0591	1.0586	0.9283	3.5431	-87.6434	27.4900 
532.872	0.0698	0.0596	1.0449	0.7745	3.6969	-87.0117	27.4900 
532.872	0.0479	0.0654	1.0303	0.6592	3.8947	-86.4240	27.5000 
532.891	0.0352	0.0742	1.0234	0.5383	4.1528	-85.9021	27.4900 
532.913	0.0464	0.0869	1.0195	0.4889	4.4440	-85.4077	27.5000 
532.931	0.0830	0.1113	0.9946	0.5713	4.7186	-84.9188	27.4900 
532.951	0.0835	0.1045	0.9902	0.7526	4.9493	-84.4189	27.5100 
532.971	0.0420	0.0396	1.1147	0.8954	5.1251	-83.9355	27.4900 
532.990	-0.0117	0.0093	1.2231	1.0876	5.2679	-83.5126	27.4900 
533.012	-0.0547	-0.0264	1.2646	1.4227	5.4272	-83.1885	27.4900 
533.058	-0.0928	-0.1143	1.2715	1.7029	5.6305	-83.0457	27.5000 
533.060	-0.2222	-0.0679	1.1245	1.8292	5.9216	-82.9248	27.4900 
533.070	-0.2349	-0.0688	0.9468	1.7084	6.2567	-82.7325	27.4700 
533.090	-0.2183	-0.1338	0.8701	1.2250	6.5314	-82.4194	27.4900 
533.110	-0.2261	-0.1313	0.9751	0.8240	6.7072	-81.9690	27.4900 
533.130	-0.2017	-0.0903	1.0801	0.6921	6.7950	-81.3263	27.4900 
533.150	-0.1357	-0.0703	1.0723	0.7086	6.8610	-80.6451	27.4900 
533.170	-0.0923	-0.0640	1.0181	0.6921	6.9104	-80.0409	27.5000 
533.190	-0.0430	-0.0259	0.9844	0.7800	6.9269	-79.5355	27.4900 
533.213	-0.0435	0.0020	0.9702	1.0272	6.8994	-79.0961	27.5000 
533.230	-0.0728	-0.0073	0.9390	1.2854	6.8445	-78.7225	27.5000 
533.250	-0.1050	-0.0049	0.9302	1.4996	6.7786	-78.3875	27.5000 
533.300	-0.1587	0.0171	0.9346	1.6534	6.7566	-78.0908	27.4900 
533.302	-0.1494	0.0215	0.9448	1.7523	6.7621	-77.8162	27.4900 
533.310	-0.1099	0.0156	0.9419	1.7963	6.7841	-77.5800	27.5000 
533.329	-0.0874	0.0283	0.9473	1.9061	6.8060	-77.3877	27.5000 
533.349	-0.0967	0.0381	0.9702	2.0325	6.8005	-77.1954	27.5000 
533.369	-0.1201	0.0835	0.9888	2.0819	6.7676	-76.9373	27.4900 
533.389	-0.1401	0.0806	0.9624	2.2852	6.7291	-76.6846	27.4900 
533.409	-0.1245	0.0962	0.9414	2.4939	6.7126	-76.4319	27.4900 
533.429	-0.0918	0.0820	0.9321	2.5818	6.6962	-76.2122	27.4900 
533.449	-0.0786	0.1001	0.9907	2.8290	6.6522	-76.0034	27.5000 
533.498	-0.1016	0.1289	1.0122	3.1750	6.5369	-75.7343	27.4800 
533.501	-0.1089	0.1284	1.0220	3.2959	6.3776	-75.4761	27.4900 
533.508	-0.0898	0.1401	1.0376	3.5486	6.2073	-75.2014	27.4800 
533.528	-0.1021	0.1313	1.0361	3.7958	6.0480	-74.9158	27.4700 
533.548	-0.1274	0.0908	1.0889	3.9056	5.9052	-74.6466	27.4900 
533.568	-0.1270	0.1177	1.1362	3.9221	5.7733	-74.4104	27.4800 
533.588	-0.0811	0.1660	1.1553	3.9716	5.6195	-74.1522	27.4900 
533.608	-0.0288	0.1582	1.1895	4.1364	5.4163	-73.9325	27.4900 
533.627	0.0308	0.1577	1.2783	4.4385	5.1031	-73.8007	27.4900 
533.648	-0.0244	0.1274	1.2280	4.8834	4.7681	-73.7018	27.4800 
533.688	-0.1006	0.0103	1.1802	5.2350	4.4934	-73.7018	27.4800 
533.690	-0.0601	0.0200	1.1104	5.2954	4.3011	-73.6743	27.4800 
533.709	0.0269	-0.0283	0.9351	5.0262	4.2133	-73.6853	27.4700 
533.727	0.0879	-0.0781	0.8462	4.5538	4.1858	-73.7677	27.4800 
533.747	0.1548	-0.2139	0.9160	3.9716	4.1858	-74.1193	27.4800 
533.767	0.1304	-0.1885	1.0425	3.5211	4.1968	-74.5752	27.4800 
533.787	0.0034	-0.0801	1.1851	3.2245	4.2627	-74.9487	27.4700 
533.807	-0.0493	-0.0371	1.1846	3.0157	4.3945	-75.1904	27.4800 
533.828	-0.0142	0.0190	1.0620	2.8345	4.5758	-75.2893	27.4700 
533.883	0.0181	0.0205	0.9668	2.6257	4.7955	-75.3058	27.4700 
533.885	0.0327	0.0039	0.8647	2.4280	5.0043	-75.2783	27.4600 
533.887	0.0332	-0.0112	0.8525	2.3401	5.2020	-75.2179	27.4700 
533.906	0.0376	-0.0127	0.8931	2.3456	5.3668	-75.1190	27.4600 
533.927	0.0508	0.0112	0.9185	2.3126	5.4932	-74.9707	27.4700 
533.947	0.0625	0.0151	0.9189	2.2852	5.5865	-74.7894	27.4900 
533.966	0.0713	0.0273	0.9238	2.2467	5.6689	-74.6082	27.4800 
533.986	0.0669	0.0073	0.9590	2.2687	5.7678	-74.4214	27.4800 
534.006	0.0581	0.0264	1.0093	2.2028	5.8777	-74.2181	27.4600 
534.026	0.0469	0.0894	1.0269	2.2083	5.9985	-73.9929	27.4800 
534.071	0.0420	0.0894	1.0103	2.5049	6.0864	-73.7457	27.4700 
534.073	0.0176	0.0938	0.9438	2.7686	6.1414	-73.4985	27.4800 
534.086	0.0073	0.0884	0.9438	2.9663	6.2073	-73.2678	27.4700 
534.106	-0.0029	0.0947	0.9863	3.0981	6.3391	-73.0426	27.4700 
534.125	0.0112	0.1138	1.0327	3.1146	6.5094	-72.7734	27.4600 
534.145	0.0620	0.0918	1.1050	3.1641	6.6687	-72.4548	27.4600 
534.165	0.0840	0.0752	1.1196	3.2245	6.7896	-72.2186	27.4500 
534.185	0.0894	0.0659	1.1211	3.2849	6.9049	-72.1307	27.4700 
534.205	0.0420	0.1465	1.1489	3.3069	6.9983	-72.0703	27.4600 
534.225	-0.0073	0.2124	1.1685	3.3893	7.0862	-71.9055	27.4500 
534.245	-0.0366	0.1802	1.2061	3.5925	7.1631	-71.6748	27.4400 
534.265	-0.0732	0.1611	1.2456	3.7683	7.2510	-71.4606	27.4600 
534.312	-0.0601	0.0850	1.2173	3.8892	7.3718	-71.3342	27.4600 
534.313	-0.0459	-0.0317	1.1104	3.9441	7.4872	-71.4606	27.4700 
534.325	-0.0771	-0.0635	1.0127	3.7463	7.5806	-71.7407	27.4600 
534.344	-0.1313	-0.1221	0.8799	3.1201	7.6520	-72.0978	27.4600 
534.364	-0.2051	-0.1455	0.9102	2.4719	7.6849	-72.3395	27.4500 
534.384	-0.2671	-0.1782	1.0186	2.0544	7.5970	-72.3230	27.4500 
534.404	-0.2031	-0.1025	1.1689	1.7029	7.4707	-72.1417	27.4500 
534.427	-0.1191	-0.0771	1.1675	1.3733	7.3444	-71.9165	27.4500 
534.444	-0.0571	-0.0693	1.1011	1.0382	7.2070	-71.7682	27.4600 
534.504	-0.0361	-0.0430	1.0361	0.7800	7.0148	-71.6473	27.4500 
534.506	-0.0381	-0.0088	0.9692	0.6866	6.7786	-71.5045	27.4300 
534.506	-0.0537	0.0054	0.9258	0.6757	6.5479	-71.3177	27.4200 
534.523	-0.0894	0.0000	0.8540	0.8020	6.3556	-71.1200	27.4100 
534.544	-0.1123	0.0352	0.8398	0.9558	6.2512	-70.9277	27.4200 
534.563	-0.1011	0.0093	0.8311	1.0876	6.2073	-70.7684	27.4200 
534.583	-0.0820	0.0078	0.8398	0.9668	6.1963	-70.6421	27.4200 
534.603	-0.0620	0.0332	0.9072	0.7361	6.1743	-70.5103	27.4100 
534.623	-0.0547	0.0605	0.9702	0.7471	6.1139	-70.3070	27.4100 
534.644	-0.0615	0.0635	0.9536	1.0547	6.0205	-70.0763	27.3900 
534.693	-0.0850	0.0532	0.9380	1.3074	5.9326	-69.9005	27.4100 
534.696	-0.0986	0.0815	0.9546	1.6095	5.8942	-69.7522	27.3900 
534.702	-0.0918	0.1089	0.9751	1.8567	5.8612	-69.5819	27.4000 
534.723	-0.0825	0.1226	1.0146	1.9940	5.8008	-69.4061	27.4000 
534.742	-0.0903	0.1201	1.0234	2.1588	5.7019	-69.2249	27.3900 
534.762	-0.1089	0.1001	1.0806	2.3511	5.5756	-69.0820	27.3900 
534.782	-0.1348	0.1245	1.1104	2.5323	5.4657	-68.9557	27.3900 
534.802	-0.1479	0.1611	1.1084	2.6917	5.3943	-68.7524	27.3800 
534.822	-0.1279	0.1597	1.1489	2.8400	5.3284	-68.4998	27.3700 
534.845	0.0298	0.1177	1.2993	3.0048	5.1636	-68.2910	27.3900 
534.885	0.0698	0.1484	1.3101	3.3453	4.8944	-68.1647	27.3700 
534.888	0.0020	-0.0273	1.2065	3.7848	4.5978	-68.2581	27.3800 
534.902	0.0234	-0.0625	1.1587	3.9990	4.3561	-68.4668	27.3800 
534.922	0.0830	-0.0518	0.9800	3.8177	4.2297	-68.7140	27.3900 
534.942	0.1040	-0.1675	0.8945	3.2904	4.2078	-69.1809	27.3800 
534.962	0.1133	-0.1865	0.9814	2.6367	4.2682	-69.9390	27.3900 
534.981	0.0425	-0.1392	1.1128	2.1149	4.3341	-70.6036	27.3800 
535.001	-0.0615	-0.0332	1.1880	1.7029	4.4495	-71.0870	27.3800 
535.021	-0.0508	-0.0063	1.1309	1.4337	4.6198	-71.4441	27.3700 
535.087	-0.0063	0.0088	0.9873	1.2415	4.8340	-71.6968	27.3800 
535.092	0.0239	-0.0005	0.8794	0.9723	5.0372	-71.9220	27.4000 
535.092	0.0566	-0.0186	0.8232	0.6702	5.1801	-72.1033	27.3900 
535.101	0.0596	-0.0444	0.8604	0.5328	5.2899	-72.2571	27.3900 
535.121	0.0269	-0.0239	0.8999	0.5054	5.3943	-72.3889	27.3800 
535.141	0.0342	-0.0161	0.9028	0.4065	5.4877	-72.4713	27.3800 
535.161	0.0630	-0.0288	0.9194	0.2637	5.5756	-72.5317	27.3800 
535.181	0.0859	-0.0161	0.9468	0.1099	5.6580	-72.5647	27.3700 
535.200	0.0977	0.0254	1.0073	-0.0275	5.7239	-72.5208	27.3700 
535.220	0.0771	0.0518	1.0278	-0.0824	5.7788	-72.4329	27.3700 
535.276	0.0249	0.0840	1.0229	0.0659	5.8447	-72.3230	27.3600 
535.281	0.0088	0.0776	0.9966	0.3021	5.9271	-72.2131	27.3700 
535.285	0.0176	0.0806	0.9766	0.3845	6.0205	-72.1143	27.3800 
535.300	0.0215	0.1030	0.9858	0.3845	6.1469	-71.9714	27.3700 
535.320	0.0347	0.1421	1.0361	0.3955	6.2952	-71.7133	27.3500 
535.339	0.0352	0.1206	1.0591	0.4999	6.4380	-71.4111	27.3700 
535.359	0.0791	0.0483	1.0156	0.7196	6.5643	-71.2463	27.3600 
535.380	0.1157	0.0044	0.9702	0.9119	6.6962	-71.3617	27.3700 
535.400	0.0332	0.1177	1.0107	0.9064	6.8500	-71.6199	27.3500 
535.419	-0.0586	0.1787	1.0806	0.7745	7.0917	-71.7078	27.3700 
535.439	-0.1875	0.1328	1.2480	0.6921	7.3828	-71.6473	27.3500 
535.459	-0.2227	0.0986	1.3359	0.7855	7.6740	-71.4276	27.3400 
535.479	-0.1177	-0.1245	1.2808	1.0767	7.9651	-71.2079	27.3400 
535.515	-0.0938	-0.1475	1.1689	1.0767	8.2562	-71.2848	27.3300 
535.520	-0.1426	-0.2290	0.9888	0.4669	8.5199	-71.7407	27.3400 
535.539	-0.1167	-0.1729	1.0146	-0.4340	8.6407	-72.2516	27.3500 
535.559	-0.1646	-0.1587	1.2100	-0.9888	8.5419	-72.4713	27.3300 
535.579	-0.1353	-0.1489	1.2749	-1.1481	8.3331	-72.4988	27.3400 
535.600	-0.0674	-0.0625	1.1914	-1.1426	8.0914	-72.4438	27.3300 
535.619	-0.0723	-0.0669	1.0781	-1.1536	7.8607	-72.4054	27.3400 
535.638	-0.0850	-0.0679	0.9536	-1.2415	7.6355	-72.4878	27.3500 
535.657	-0.0996	-0.0430	0.8740	-1.2195	7.4487	-72.6306	27.3300 
535.705	-0.1099	-0.0371	0.8560	-1.2195	7.2949	-72.7515	27.3300 
535.707	-0.1152	-0.0234	0.8564	-0.9283	7.1521	-72.8668	27.3200 
535.718	-0.1313	-0.0156	0.8657	-0.4724	7.0367	-73.0316	27.3100 
535.737	-0.1099	-0.0488	0.8354	-0.3406	6.9653	-73.2294	27.3200 
535.758	-0.0938	0.0029	0.8423	-0.5768	6.8994	-73.4052	27.3000 
535.778	-0.0596	0.0376	0.9067	-0.2417	6.8280	-73.5809	27.3100 
535.798	-0.0591	0.0068	0.9155	0.0055	6.6962	-73.7292	27.3000 
535.818	-0.0918	0.0825	0.9458	-0.2087	6.5259	-73.8336	27.3000 
535.837	-0.1172	0.0840	0.9644	0.1483	6.3721	-73.8007	27.2900 
535.860	-0.1436	0.0518	0.9590	0.3076	6.2402	-73.8116	27.2900 
535.894	-0.1235	0.1152	0.9946	0.5493	6.1469	-73.7787	27.3100 
535.897	-0.0898	0.1094	1.0127	0.8350	6.0205	-73.7018	27.2900 
535.917	-0.0483	0.1299	1.0381	1.1041	5.8447	-73.5699	27.3000 
535.937	-0.0415	0.1143	1.0269	1.4227	5.6030	-73.4821	27.2900 
535.960	-0.0786	0.1006	1.0098	1.7194	5.3558	-73.4601	27.2900 
535.977	-0.1240	0.1001	1.0190	1.9281	5.1581	-73.4711	27.2900 
536.000	-0.1191	0.1187	1.0293	1.9940	4.9878	-73.4766	27.3000 
536.017	-0.0322	0.1455	1.1279	2.1149	4.7955	-73.4436	27.3000 
536.036	0.0430	0.1353	1.2451	2.4225	4.4879	-73.5040	27.3000 
536.056	0.0347	0.1230	1.2930	2.9773	4.0869	-73.7018	27.2800 
536.076	0.0127	-0.0391	1.2700	3.4442	3.7244	-74.0698	27.2800 
536.096	0.0840	-0.0601	1.2246	3.6035	3.4442	-74.4928	27.3000 
536.131	0.1318	-0.0068	1.1157	3.4442	3.2300	-74.8279	27.2800 
536.136	0.0864	-0.2031	0.9556	2.7521	3.1750	-75.3662	27.3200 
536.156	0.0654	-0.1978	1.0205	2.0819	3.2684	-76.0474	27.2800 
536.177	0.0010	-0.0781	1.1797	1.5985	3.4167	-76.6901	27.2900 
536.196	-0.0522	-0.0498	1.1719	1.2854	3.6200	-77.2668	27.3000 
536.216	-0.0146	-0.0356	1.0698	1.1865	3.8782	-77.8052	27.3000 
536.236	0.0063	-0.0020	0.9834	1.1261	4.1913	-78.2941	27.3000 
536.256	0.0332	-0.0054	0.8638	1.0107	4.4769	-78.7225	27.2700 
536.276	0.0269	-0.0425	0.8203	0.8459	4.6967	-79.1400	27.2900 
536.318	-0.0015	-0.0459	0.8472	0.6757	4.8779	-79.5410	27.2700 
536.321	0.0088	-0.0205	0.8901	0.5603	5.0482	-79.8706	27.2800 
536.340	0.0747	0.0034	0.9404	0.4559	5.1910	-80.1178	27.2800 
536.355	0.0928	-0.0068	0.9561	0.4504	5.2734	-80.2716	27.2800 
536.375	0.0659	0.0015	0.9766	0.4285	5.3064	-80.3705	27.2800 
536.395	0.0488	0.0127	0.9819	0.4614	5.3229	-80.4254	27.2800 
536.415	0.0522	0.0396	0.9858	0.5273	5.3394	-80.4639	27.2700 
536.435	0.0547	0.0771	0.9912	0.6207	5.3723	-80.4364	27.2500 
536.455	0.0259	0.0981	0.9824	0.6976	5.4108	-80.3705	27.2600 
536.516	0.0093	0.0898	0.9775	0.7361	5.4327	-80.2716	27.2600 
536.519	0.0073	0.0938	0.9707	0.8569	5.4437	-80.1178	27.2600 
536.519	0.0142	0.1030	0.9731	1.1481	5.4602	-79.9146	27.2600 
536.534	0.0181	0.1167	0.9980	1.3733	5.4932	-79.6619	27.2400 
536.554	0.0415	0.1304	1.0063	1.5930	5.5481	-79.3982	27.2600 
536.574	0.0776	0.1079	1.0234	1.8512	5.6030	-79.1620	27.2400 
536.594	0.0845	0.1035	1.0303	2.0435	5.6580	-78.9862	27.2600 
536.613	0.0640	0.1274	1.0728	2.0490	5.7184	-78.8708	27.2700 
536.634	0.0410	0.1733	1.0894	2.0050	5.7843	-78.7170	27.2500 
536.653	0.0068	0.1865	1.0840	1.9775	5.8942	-78.4753	27.2400 
536.704	-0.0317	0.1465	1.1372	1.9995	6.0370	-78.2227	27.2300 
536.708	-0.0459	0.1333	1.2461	2.0709	6.1963	-77.9755	27.2500 
536.714	-0.0015	0.1431	1.2183	2.2467	6.3226	-77.6569	27.2500 
536.734	-0.0015	-0.0566	1.2773	2.2467	6.4764	-77.6733	27.2400 
536.754	-0.0356	-0.0308	1.2744	2.0654	6.6302	-77.8491	27.2200 
536.773	-0.1460	-0.1016	1.1050	1.5875	6.7841	-78.1787	27.2400 
536.793	-0.2061	-0.0962	0.9116	0.7635	6.9598	-78.5577	27.2400 
536.813	-0.2603	-0.1411	0.8442	-0.1648	7.1741	-78.8269	27.2400 
536.833	-0.2500	-0.1445	0.9688	-0.9174	7.2784	-78.8324	27.2200 
536.853	-0.1523	-0.1240	1.1187	-1.5491	7.2400	-78.6566	27.2300 
536.873	-0.0923	-0.1235	1.1147	-2.0160	7.1136	-78.4918	27.2200 
536.893	-0.0884	-0.1055	1.0742	-2.4280	6.9598	-78.4369	27.2100 
536.944	-0.0796	-0.1045	0.9624	-2.7191	6.7950	-78.4259	27.2000 
536.946	-0.0625	-0.1108	0.9375	-2.8070	6.6028	-78.4204	27.2200 
536.953	-0.0522	-0.0664	0.9321	-2.8015	6.4270	-78.4259	27.2000 
536.972	-0.0645	-0.0752	0.9268	-2.6367	6.2622	-78.4863	27.2100 
536.992	-0.0991	-0.0376	0.9502	-2.5323	6.1249	-78.5687	27.2000 
537.012	-0.1045	-0.0459	0.9512	-2.4829	6.0095	-78.6511	27.2000 
537.032	-0.1030	-0.0308	0.9609	-2.4939	5.9326	-78.7665	27.2000 
537.052	-0.1035	-0.0488	0.9463	-2.5104	5.8722	-78.8873	27.1900 
537.072	-0.1035	-0.0117	0.9775	-2.5104	5.8173	-78.9587	27.2100 
537.092	-0.0894	0.0117	0.9780	-2.5104	5.7458	-78.9642	27.2000 
537.132	-0.0977	0.0195	0.9785	-2.4280	5.6799	-78.9368	27.1900 
537.134	-0.0859	0.0400	0.9634	-2.1973	5.5756	-78.8654	27.2000 
537.152	-0.0825	0.0459	0.9478	-1.8018	5.4327	-78.6951	27.1900 
537.172	-0.0864	0.0415	0.9531	-1.4941	5.2625	-78.4698	27.2000 
537.191	-0.0830	0.0708	0.9795	-1.3019	5.0867	-78.2172	27.1800 
537.211	-0.0801	0.0728	0.9980	-1.1865	4.8889	-77.9205	27.2000 
537.231	-0.0698	0.0649	1.0049	-1.0547	4.6692	-77.5800	27.1900 
537.251	-0.0596	0.0674	1.0020	-0.8844	4.4495	-77.1680	27.1900 
537.273	-0.0317	0.0654	1.0000	-0.7306	4.2133	-76.7010	27.2000 
537.329	-0.0239	0.1021	1.0122	-0.4175	3.9661	-76.1682	27.1900 
537.331	-0.0098	0.0942	0.9829	-0.1813	3.6420	-75.5530	27.1900 
537.331	0.0049	0.1240	0.9814	0.1373	3.2355	-74.8993	27.2000 
537.351	0.0313	0.0781	1.0513	0.4559	2.7631	-74.2841	27.2000 
537.371	0.0513	0.0425	1.2056	0.6262	2.2632	-73.8007	27.1800 
537.391	0.0337	0.0420	1.3315	0.8405	1.7688	-73.4656	27.2100 
537.412	-0.0293	-0.0405	1.3315	1.1481	1.3513	-73.1525	27.2100 
537.430	-0.0679	-0.0698	1.3535	1.0602	1.0767	-72.7844	27.2000 
537.450	-0.0337	-0.0518	1.2598	0.5823	0.8954	-72.3834	27.2000 
537.470	-0.0195	-0.0605	0.9692	0.1208	0.8459	-71.8781	27.2000 
537.519	0.0132	-0.1504	0.8105	-0.3955	0.8734	-71.4771	27.2000 
537.522	0.0776	-0.2231	0.8789	-0.8350	0.9338	-71.2793	27.2000 
537.530	0.0757	-0.1885	1.0166	-1.0822	0.9998	-71.1145	27.2200 
537.550	0.0273	-0.1226	1.1211	-1.0437	1.0657	-70.8179	27.2200 
537.570	0.0132	-0.1089	1.1489	-0.9723	1.1151	-70.3564	27.2000 
537.590	0.0269	-0.0747	1.0806	-0.9778	1.1151	-69.7192	27.2000 
537.609	0.0225	-0.0757	1.0391	-0.9778	1.0986	-68.9117	27.1900 
537.629	0.0259	-0.1084	0.9561	-0.9943	1.0657	-68.0109	27.2100 
537.649	0.0347	-0.0859	0.9243	-1.0107	1.0382	-67.0551	27.2000 
537.669	0.0430	-0.0503	0.9199	-0.9613	0.9888	-65.9674	27.2200 
537.691	0.0601	-0.0527	0.9346	-0.8679	0.8734	-64.6930	27.1900 
537.709	0.0635	-0.0791	0.9736	-0.7526	0.7141	-63.3032	27.2000 
537.765	0.0713	-0.0850	0.9966	-0.5933	0.5658	-61.8750	27.2000 
537.768	0.0718	-0.0620	1.0396	-0.4120	0.4395	-60.3589	27.2200 
537.770	0.0693	-0.0469	1.0513	-0.2087	0.3131	-58.7000	27.2000 
537.788	0.0571	-0.0283	1.0415	0.1099	0.1923	-56.9147	27.1800 
537.808	0.0605	-0.0215	1.0259	0.5219	0.0879	-55.0250	27.1900 
537.828	0.0942	0.0054	1.0098	0.8295	-0.0165	-53.0200	27.2100 
537.849	0.1108	0.0093	0.9912	1.1481	-0.1208	-50.9326	27.2100 
537.868	0.1421	-0.0098	1.0049	1.4996	-0.2417	-48.8177	27.2100 
537.888	0.1572	-0.0107	1.0220	1.8402	-0.3735	-46.6754	27.2100 
537.908	0.1460	0.0068	1.0396	2.1918	-0.4944	-44.5276	27.2000 
537.950	0.1401	0.0239	1.0376	2.6093	-0.6042	-42.3633	27.2100 
537.952	0.1499	0.0137	0.9976	3.0322	-0.7031	-40.2155	27.2100 
537.968	0.1455	0.0132	0.9834	3.4113	-0.7745	-38.1061	27.2100 
537.987	0.1582	0.0044	0.9653	3.6914	-0.8130	-36.0022	27.2200 
538.008	0.2134	0.0063	0.9819	3.8782	-0.8569	-33.8763	27.2200 
538.027	0.2134	-0.0322	1.0747	3.9661	-0.9174	-31.8164	27.2200 
538.047	0.2183	0.0259	1.1074	3.8562	-0.9998	-29.7894	27.2100 
538.067	0.1807	0.0313	1.0757	3.7354	-1.0767	-27.8448	27.2100 
538.089	0.1411	0.0054	1.1035	3.5596	-1.1206	-26.0321	27.2200 
538.150	0.1284	0.0146	1.1460	3.3783	-1.1261	-24.3182	27.1900 
538.152	0.1245	-0.0117	1.1216	3.1915	-1.0986	-22.7197	27.1900 
538.152	0.0874	0.0000	1.0146	2.9883	-1.0052	-21.2750	27.2100 
538.167	0.0562	0.0088	0.9321	2.8235	-0.8295	-19.9622	27.2200 
538.187	0.0273	0.0083	0.8721	2.5049	-0.5383	-18.8361	27.2300 
538.208	-0.0024	-0.0356	0.8901	1.9336	-0.1703	-17.9132	27.2300 
538.227	-0.0347	-0.0630	0.9209	1.3513	0.2692	-17.1661	27.2300 
538.247	-0.0674	-0.0645	0.9844	0.8624	0.7800	-16.5179	27.2100 
538.267	-0.0625	-0.0313	1.0186	0.4889	1.3129	-15.9247	27.2200 
538.287	-0.0669	-0.0210	1.0669	0.0549	1.8182	-15.3534	27.2100 
538.341	-0.0708	-0.0215	1.0913	-0.2966	2.2906	-14.7876	27.2200 
538.344	-0.0830	-0.0229	1.0527	-0.4889	2.7136	-14.2163	27.2100 
538.346	-0.1162	-0.0156	1.0239	-0.6042	3.1366	-13.6560	27.2200 
538.366	-0.1284	-0.0288	1.0039	-0.7581	3.5925	-13.0792	27.2100 
538.386	-0.1191	-0.0171	1.0068	-0.9558	4.0430	-12.4585	27.2100 
538.405	-0.1011	-0.0757	1.0288	-1.0822	4.4385	-11.7938	27.2100 
538.425	-0.0610	-0.0879	1.0498	-1.1316	4.7296	-11.0907	27.2200 
538.446	0.0132	-0.0889	1.0596	-1.1481	4.8615	-10.3052	27.2100 
538.466	0.0366	-0.0908	1.0479	-1.2360	4.8889	-9.5966	27.2200 
538.485	0.0063	-0.0879	1.0400	-1.2799	4.8944	-9.0912	27.2100 
538.532	-0.0020	-0.1030	1.0166	-1.3074	4.9219	-8.8000	27.2200 
538.536	0.0020	-0.1147	1.0259	-1.3898	4.9548	-8.7067	27.2200 
538.545	-0.0742	-0.1216	1.0083	-1.4886	5.0482	-8.8770	27.2200 
538.565	-0.1455	-0.0215	1.0518	-1.6095	5.1746	-9.2175	27.2100 
538.584	-0.1357	-0.0112	1.0679	-1.7413	5.2844	-9.5142	27.2000 
538.605	-0.0962	-0.0806	1.0313	-1.4996	5.3229	-9.7229	27.2200 
538.625	-0.0728	-0.0723	1.0210	-1.1426	5.3064	-9.8657	27.2200 
538.645	-0.1021	-0.0635	1.0000	-0.8899	5.3009	-9.9646	27.2200 
538.664	-0.0859	-0.0591	0.9756	-0.7690	5.3998	-10.1569	27.2100 
538.684	-0.0776	-0.0459	0.9702	-0.5823	5.5481	-10.3326	27.2200 
538.705	-0.0151	-0.0674	1.0161	-0.1703	5.6964	-10.4810	27.2300 
538.724	0.0903	0.1548	1.1836	0.4669	5.6195	-10.4645	27.2200 
538.777	-0.1226	-0.0005	1.0361	1.4612	5.3943	-10.3931	27.2300 
538.779	-0.0815	-0.0356	0.9902	2.2797	5.3394	-10.4590	27.2400 
538.784	-0.0669	0.1499	1.0493	3.0872	5.3119	-10.4315	27.2300 
538.803	-0.0015	-0.2095	1.0142	3.8947	5.3723	-10.5249	27.2300 
538.824	0.0088	-0.0142	1.0693	3.9221	5.5316	-10.9698	27.2300 
538.844	-0.0171	0.2041	1.0688	3.9990	5.6305	-11.2335	27.2300 
538.865	-0.0498	0.1123	0.9985	4.3671	5.6250	-11.4038	27.2300 
538.884	-0.0093	0.0400	0.9604	4.8230	5.5811	-11.5631	27.2300 
538.907	0.0269	0.0352	0.9116	5.1581	5.5371	-11.7609	27.2500 
538.923	-0.0303	0.1323	0.9834	5.3229	5.5261	-11.9751	27.2200 
538.965	-0.0688	0.0957	0.9595	5.4327	5.4877	-12.2333	27.2200 
538.968	-0.0918	0.1333	1.1392	5.6635	5.5151	-12.6013	27.2300 
538.983	-0.0273	0.0781	1.1191	5.5536	5.4767	-12.8046	27.2500 
539.003	-0.0181	0.0903	1.0771	5.4547	5.4218	-12.9364	27.2400 
539.023	-0.0059	0.0767	1.0327	5.4218	5.3778	-13.0573	27.2400 
539.043	0.0151	0.0679	1.0156	5.3668	5.3394	-13.1946	27.2300 
539.063	0.0063	0.0586	1.0435	5.2570	5.3229	-13.3813	27.2400 
539.084	-0.0044	0.0576	1.0303	4.9548	5.3009	-13.5352	27.2400 
539.103	-0.0029	0.0459	1.0254	4.7296	5.2679	-13.7000	27.2400 
539.151	0.0142	0.0605	1.0220	4.5648	5.2350	-13.8757	27.2400 
539.153	0.0132	0.0649	1.0176	4.3781	5.1855	-14.0131	27.2500 
539.161	-0.0078	0.0835	1.0225	4.3176	5.1361	-14.1888	27.2600 
539.182	0.0122	0.0898	1.0420	4.2517	5.0812	-14.3372	27.2500 
539.202	0.0166	0.0400	1.0396	4.2737	5.0043	-14.4855	27.2400 
539.224	0.0166	0.0796	1.0420	4.0979	4.9493	-14.5789	27.2400 
539.242	0.0249	0.0493	1.0088	3.9056	4.8999	-14.6667	27.2500 
539.262	0.0210	0.0513	1.0117	3.8397	4.8395	-14.7711	27.2400 
539.282	0.0034	0.0742	1.0415	3.6914	4.7955	-14.8645	27.2500 
539.304	0.0156	0.0693	1.0352	3.5706	4.7406	-14.9194	27.2400 
539.321	0.0010	0.0645	1.0503	3.6145	4.6912	-14.9908	27.2500 
539.341	0.0068	0.0513	1.0488	3.6200	4.6527	-15.0293	27.2300 
539.393	0.0088	0.0479	1.0264	3.4277	4.6033	-14.9908	27.2400 
539.396	0.0186	0.0566	1.0332	3.2245	4.5538	-14.9469	27.2500 
539.401	0.0225	0.0508	1.0562	3.1091	4.4824	-14.8700	27.2600 
539.421	0.0254	0.0308	1.0552	2.9773	4.3781	-14.7437	27.2600 
539.441	0.0200	0.0308	1.0259	3.0597	4.2737	-14.6228	27.2600 
539.461	0.0146	0.0381	1.0137	3.1421	4.2078	-14.5459	27.2300 
539.481	0.0122	0.0547	1.0073	3.2080	4.1583	-14.4305	27.2300 
539.501	0.0054	0.0273	0.9800	3.3398	4.1309	-14.3262	27.2300 
539.521	0.0107	0.0586	0.9844	3.4497	4.1418	-14.2053	27.2500 
539.540	0.0190	0.0952	1.0195	3.3453	4.1583	-14.0515	27.2500 
539.581	0.0171	0.0952	1.0444	3.3014	4.1638	-13.9252	27.2500 
539.583	0.0122	0.0586	1.0635	3.3124	4.1583	-13.8373	27.2400 
539.600	0.0073	0.0610	1.0483	3.3948	4.1473	-13.7659	27.2500 
539.620	0.0103	0.0449	1.0229	3.5156	4.1199	-13.6835	27.2500 
539.640	-0.0029	0.0444	1.0283	3.5815	4.1089	-13.6121	27.2500 
539.660	0.0020	0.0469	1.0439	3.4991	4.1199	-13.5132	27.2500 
539.680	0.0562	0.0254	0.9878	3.4113	4.0924	-13.3594	27.2500 
539.700	0.0352	0.0508	1.0171	3.4058	4.0759	-13.3154	27.2600 
539.721	0.0332	0.0503	1.0332	3.4113	4.0759	-13.3154	27.2400 
539.773	0.0166	0.0522	1.0503	3.4222	4.0649	-13.3374	27.2400 
539.776	0.0093	0.0576	1.0464	3.4058	4.0594	-13.3868	27.2300 
539.780	-0.0122	0.0786	1.0254	3.3948	4.0649	-13.4143	27.2500 
539.802	-0.0166	0.0908	1.0386	3.2300	4.0704	-13.3704	27.2400 
539.819	-0.0015	0.0425	1.0269	3.0432	4.0265	-13.2495	27.2400 
539.840	0.0024	0.0322	1.0239	2.9443	3.9935	-13.1232	27.2500 
539.859	0.0269	0.0503	1.0195	2.8510	3.9716	-13.0023	27.2400 
539.879	0.0181	0.0361	1.0112	2.8510	3.9551	-12.9089	27.2500 
539.899	0.0015	0.0532	1.0034	2.8894	3.9441	-12.8815	27.2300 
539.920	-0.0093	0.0581	1.0195	2.9333	3.9496	-12.8540	27.2400 
539.960	0.0039	0.0415	1.0366	2.9333	3.9441	-12.7881	27.2500 
539.962	0.0024	0.0469	1.0498	2.9224	3.9331	-12.7277	27.2400 
539.979	0.0005	0.0615	1.0459	2.9114	3.9331	-12.6947	27.2400 
539.998	-0.0015	0.0825	1.0459	2.9498	3.9496	-12.6837	27.2400 
540.018	0.0034	0.0601	1.0190	2.9883	3.9771	-12.6508	27.2400 
540.038	0.0093	0.0366	1.0083	2.9828	4.0100	-12.6343	27.2500 
540.058	0.0146	0.0439	1.0068	2.9498	4.0265	-12.6123	27.2400 
540.078	-0.0020	0.0488	1.0186	2.8949	4.0485	-12.6068	27.2300 
540.098	-0.0034	0.0679	1.0259	2.8015	4.0869	-12.6068	27.2500 
540.118	-0.0093	0.0728	1.0391	2.7301	4.1254	-12.6233	27.2500 
540.138	-0.0078	0.0674	1.0269	2.6862	4.1638	-12.6233	27.2500 
540.157	0.0000	0.0532	1.0137	2.6697	4.1803	-12.6013	27.2400 
540.201	0.0034	0.0454	1.0176	2.6642	4.1748	-12.5739	27.2500 
540.204	-0.0137	0.0513	1.0322	2.6752	4.1803	-12.5574	27.2200 
540.218	-0.0200	0.0591	1.0400	2.6642	4.1968	-12.5409	27.2300 
540.238	-0.0122	0.0620	1.0396	2.6038	4.2023	-12.4969	27.2300 
540.258	-0.0039	0.0674	1.0298	2.5159	4.2078	-12.4310	27.2300 
540.277	0.0039	0.0591	1.0132	2.4280	4.1858	-12.3376	27.2200 
540.297	-0.0034	0.0513	1.0303	2.4005	4.1528	-12.2498	27.2400 
540.317	-0.0010	0.0542	1.0361	2.4005	4.1144	-12.1783	27.2200 
540.337	0.0039	0.0254	1.0112	2.3950	4.0814	-12.1399	27.2200 
540.397	0.0093	0.0483	1.0190	2.4060	4.0485	-12.1124	27.2400 
540.399	-0.0029	0.0435	1.0181	2.3730	4.0375	-12.1069	27.2400 
540.399	-0.0093	0.0356	1.0200	2.3236	4.0375	-12.1344	27.2200 
540.416	-0.0146	0.0630	1.0293	2.3291	4.0540	-12.1619	27.2200 
540.436	-0.0049	0.0562	1.0317	2.3456	4.0704	-12.1783	27.2400 
540.457	-0.0010	0.0527	1.0313	2.3950	4.0594	-12.1783	27.2100 
540.476	-0.0034	0.0459	1.0293	2.4500	4.0430	-12.1729	27.2200 
540.496	-0.0059	0.0537	1.0303	2.4884	4.0320	-12.1948	27.2000 
540.516	-0.0054	0.0591	1.0356	2.4774	4.0320	-12.2168	27.2200 
540.536	-0.0098	0.0537	1.0278	2.4170	4.0320	-12.2333	27.2300 
540.586	-0.0107	0.0503	1.0171	2.3181	4.0375	-12.2443	27.2300 
540.588	-0.0029	0.0498	1.0176	2.2357	4.0485	-12.2662	27.2200 
540.596	0.0010	0.0513	1.0288	2.1918	4.0594	-12.2827	27.2300 
540.617	-0.0059	0.0532	1.0356	2.1753	4.0594	-12.2882	27.2200 
540.635	-0.0122	0.0552	1.0342	2.1753	4.0485	-12.2827	27.2200 
540.656	-0.0078	0.0601	1.0254	2.1863	4.0320	-12.2552	27.2000 
540.677	-0.0068	0.0522	1.0239	2.1753	4.0155	-12.2223	27.2300 
540.696	-0.0088	0.0513	1.0244	2.1643	4.0045	-12.1948	27.2300 
540.715	-0.0020	0.0508	1.0239	2.1478	4.0045	-12.1948	27.2300 
540.735	-0.0020	0.0557	1.0239	2.1368	4.0045	-12.2058	27.2300 
540.782	-0.0078	0.0557	1.0273	2.1423	4.0045	-12.2278	27.2300 
540.784	-0.0107	0.0532	1.0293	2.1698	3.9990	-12.2498	27.2200 
540.795	-0.0083	0.0542	1.0293	2.1918	3.9935	-12.2717	27.2200 
540.815	-0.0024	0.0503	1.0317	2.2083	3.9880	-12.2772	27.2100 
540.835	0.0010	0.0513	1.0259	2.2028	3.9771	-12.2882	27.2200 
540.855	0.0015	0.0518	1.0234	2.1863	3.9716	-12.3047	27.2200 
540.874	-0.0020	0.0571	1.0254	2.1698	3.9771	-12.3267	27.2200 
540.895	-0.0054	0.0591	1.0264	2.1423	3.9880	-12.3651	27.2200 
540.914	-0.0029	0.0469	1.0229	2.0929	4.0100	-12.4036	27.2200 
540.934	-0.0054	0.0571	1.0327	2.0435	4.0265	-12.4365	27.2300 
540.975	-0.0068	0.0439	1.0298	1.9940	4.0430	-12.4695	27.2200 
540.978	-0.0034	0.0322	1.0259	1.9391	4.0594	-12.4969	27.2100 
541.001	-0.0005	0.0566	1.0298	1.8842	4.0704	-12.5244	27.2100 
541.014	-0.0049	0.0532	1.0269	1.8567	4.0759	-12.5519	27.2200 
541.034	-0.0073	0.0464	1.0210	1.8512	4.0759	-12.5793	27.2100 
541.054	-0.0059	0.0449	1.0249	1.8512	4.0759	-12.6068	27.2200 
541.074	-0.0063	0.0439	1.0327	1.8512	4.0814	-12.6453	27.2200 
541.093	-0.0034	0.0513	1.0366	1.8402	4.0869	-12.6947	27.2300 
541.116	-0.0083	0.0508	1.0313	1.8347	4.0869	-12.7386	27.2300 
541.135	-0.0132	0.0498	1.0278	1.8347	4.0869	-12.7716	27.2200 
541.153	-0.0073	0.0459	1.0244	1.8457	4.0814	-12.7991	27.2100 
541.173	-0.0039	0.0449	1.0244	1.8622	4.0704	-12.8265	27.2200 
541.218	-0.0044	0.0479	1.0303	1.8787	4.0540	-12.8375	27.2300 
541.220	-0.0093	0.0547	1.0381	1.9006	4.0320	-12.8320	27.2200 
541.233	-0.0054	0.0493	1.0347	1.9171	4.0045	-12.8101	27.2200 
541.253	-0.0039	0.0498	1.0317	1.9391	3.9716	-12.7936	27.2300 
541.272	-0.0063	0.0552	1.0259	1.9501	3.9441	-12.7936	27.2100 
541.292	-0.0063	0.0527	1.0264	1.9336	3.9276	-12.7991	27.2200 
541.312	0.0015	0.0474	1.0273	1.9061	3.9056	-12.8046	27.2200 
541.332	-0.0039	0.0479	1.0327	1.8951	3.8837	-12.8156	27.2200 
541.352	-0.0068	0.0557	1.0386	1.8951	3.8562	-12.8320	27.2200 
541.408	-0.0054	0.0562	1.0352	1.8842	3.8232	-12.8430	27.2200 
541.412	-0.0010	0.0527	1.0220	1.8842	3.7848	-12.8375	27.2200 
541.414	-0.0039	0.0425	1.0190	1.8732	3.7463	-12.8265	27.2100 
541.432	0.0000	0.0459	1.0229	1.8402	3.7189	-12.8210	27.2200 
541.452	0.0020	0.0498	1.0269	1.7963	3.6914	-12.8156	27.2100 
541.471	0.0005	0.0547	1.0371	1.7578	3.6749	-12.8210	27.2200 
541.491	-0.0005	0.0425	1.0308	1.7249	3.6639	-12.8595	27.2100 
541.512	-0.0083	0.0566	1.0259	1.7139	3.6530	-12.8979	27.2300 
541.531	-0.0093	0.0469	1.0176	1.7139	3.6475	-12.9144	27.2200 
541.552	-0.0049	0.0298	1.0181	1.7249	3.6475	-12.9254	27.2200 
541.595	0.0005	0.0557	1.0313	1.7523	3.6475	-12.9089	27.2300 
541.598	0.0024	0.0605	1.0391	1.7963	3.6365	-12.8760	27.2300 
541.611	-0.0015	0.0596	1.0381	1.8677	3.6090	-12.8265	27.2100 
541.631	-0.0029	0.0459	1.0283	1.9391	3.5815	-12.7716	27.2300 
541.651	0.0024	0.0444	1.0220	1.9666	3.5596	-12.7167	27.2200 
541.671	0.0049	0.0537	1.0249	1.9666	3.5376	-12.6672	27.2200 
541.691	0.0044	0.0522	1.0273	1.9775	3.5211	-12.6288	27.2200 
541.711	-0.0034	0.0527	1.0293	1.9775	3.5101	-12.6013	27.2200 
541.731	-0.0029	0.0552	1.0352	1.9556	3.5046	-12.5739	27.2200 
541.790	0.0073	0.0474	1.0298	1.9336	3.4937	-12.5409	27.2200 
541.792	0.0083	0.0488	1.0254	1.9336	3.4717	-12.5079	27.2200 
541.792	0.0063	0.0498	1.0220	1.9391	3.4442	-12.4695	27.2200 
541.810	0.0000	0.0459	1.0195	1.9281	3.4222	-12.4420	27.2200 
541.830	-0.0063	0.0547	1.0239	1.9226	3.4167	-12.4365	27.2400 
541.850	-0.0029	0.0679	1.0298	1.9391	3.4222	-12.4585	27.2100 
541.870	-0.0010	0.0601	1.0337	1.9666	3.4277	-12.4695	27.2300 
541.890	0.0034	0.0654	1.0376	1.9940	3.4222	-12.4640	27.2200 
541.910	0.0034	0.0542	1.0298	2.0270	3.4058	-12.4420	27.2200 
541.930	0.0044	0.0591	1.0278	2.0654	3.3838	-12.4200	27.2400 
541.949	0.0010	0.0503	1.0273	2.1204	3.3618	-12.3871	27.2300 
541.969	0.0039	0.0479	1.0283	2.1533	3.3453	-12.3596	27.2300