StartTime: 2018-11-23 19:07:01.106
Time(s)	ax(g)	ay(g)	az(g)	AngleX(deg)	AngleY(deg)	AngleZ(deg)	T(Â°) 
546.082	0.0005	0.0400	1.0303	0.8569	3.5046	-12.6398	27.2500 
546.084	-0.0015	0.0444	1.0366	0.8734	3.4991	-12.6563	27.2700 
546.091	-0.0024	0.0308	1.0386	0.8899	3.4882	-12.6672	27.2700 
546.111	-0.0010	0.0283	1.0293	0.9009	3.4827	-12.6892	27.2500 
546.131	0.0073	0.0381	1.0244	0.9064	3.4772	-12.7057	27.2600 
546.151	0.0034	0.0347	1.0186	0.9174	3.4772	-12.7222	27.2600 
546.171	-0.0078	0.0420	1.0259	0.9009	3.4827	-12.7277	27.2600 
546.191	-0.0068	0.0366	1.0288	0.8734	3.4882	-12.7112	27.2500 
546.211	-0.0117	0.0327	1.0327	0.8240	3.4827	-12.6837	27.2600 
546.230	-0.0293	0.0303	1.0474	0.7141	3.4772	-12.6453	27.2700 
546.267	-0.0308	0.0156	1.0342	0.5328	3.4882	-12.5903	27.2800 
546.270	-0.0244	0.0264	1.0298	0.3241	3.4991	-12.5409	27.2800 
546.290	-0.0317	0.0156	1.0122	0.0385	3.4991	-12.4805	27.2700 
546.310	-0.0449	0.0029	1.0225	-0.3735	3.5101	-12.4310	27.2500 
546.330	-0.0405	-0.0215	1.0391	-0.9283	3.5486	-12.3926	27.2800 
546.350	-0.0229	-0.0063	1.0303	-1.4447	3.6145	-12.3651	27.2800 
546.370	-0.0547	0.0586	1.0107	-1.9171	3.7189	-12.3376	27.2600 
546.390	-0.0596	0.0532	1.0303	-2.3236	3.8782	-12.2992	27.2600 
546.410	-0.0254	0.0415	1.0825	-2.6147	4.0485	-12.2003	27.2700 
546.455	-0.0386	0.0112	1.0591	-2.8400	4.2297	-12.0959	27.2700 
546.458	-0.0459	-0.0132	0.9683	-3.0157	4.4604	-11.9751	27.2800 
546.469	-0.0425	-0.0010	0.9648	-3.1476	4.7626	-11.9147	27.2800 
546.490	-0.0557	-0.0142	0.9946	-3.2190	5.0867	-11.8597	27.2600 
546.509	-0.0410	-0.0469	1.0005	-3.2080	5.3943	-11.8213	27.2600 
546.529	-0.0889	-0.0122	1.0132	-3.1915	5.7129	-11.9312	27.2600 
546.549	-0.1084	0.0225	1.0859	-3.2300	6.0040	-12.0081	27.2600 
546.569	-0.0664	-0.0298	1.0444	-3.4058	6.2292	-11.9861	27.2600 
546.589	-0.0571	-0.0273	1.0464	-3.4442	6.3446	-11.9531	27.2600 
546.608	-0.0581	-0.0142	1.0303	-3.3838	6.3721	-11.9806	27.2500 
546.628	-0.0894	0.0186	1.0210	-3.3563	6.3391	-12.0520	27.2600 
546.648	-0.1196	0.0142	1.0288	-3.4167	6.2787	-12.1838	27.2700 
546.696	-0.0820	-0.0166	1.0405	-3.4003	6.1469	-12.3212	27.2600 
546.698	-0.0947	0.0015	1.0415	-3.2739	5.9930	-12.5299	27.2800 
546.709	-0.1104	-0.0044	1.0459	-3.1586	5.8447	-12.8265	27.2800 
546.728	-0.1016	0.0142	1.0410	-3.0542	5.6909	-13.1396	27.2700 
546.748	-0.0981	0.0156	1.0303	-2.9498	5.5316	-13.3923	27.2600 
546.768	-0.0405	0.0000	1.0151	-2.9114	5.3558	-13.5736	27.2600 
546.788	-0.0986	0.0107	1.0249	-2.8729	5.1965	-13.7000	27.2600 
546.808	-0.0161	0.0776	1.0415	-2.6587	5.0043	-13.6176	27.2500 
546.827	-0.0317	0.0415	1.0488	-2.3016	4.7626	-13.4088	27.2800 
546.849	-0.0127	-0.0137	1.0332	-1.7633	4.5319	-13.1726	27.2600 
546.884	0.0283	-0.1060	0.9878	-1.4117	4.3176	-13.0737	27.2700 
546.887	0.0386	-0.0112	0.9854	-1.3184	4.1803	-13.2056	27.2600 
546.907	0.0010	0.0308	1.0171	-1.3403	4.1089	-13.4583	27.2700 
546.927	-0.0020	0.0122	1.0132	-1.4008	4.0594	-13.6450	27.2800 
546.946	0.0156	0.0449	1.0059	-1.4612	3.9935	-13.7000	27.2900 
546.967	0.0488	0.0483	1.0581	-1.3403	3.9386	-13.7054	27.2700 
546.986	0.0879	0.0000	1.0918	-1.2140	3.8507	-13.6066	27.2700 
547.007	0.1230	0.0371	1.0845	-1.1865	3.7354	-13.4308	27.2900 
547.029	0.0894	0.0825	1.0620	-1.0712	3.6145	-13.3099	27.2800 
547.077	-0.0161	0.0942	1.0493	-0.9888	3.5321	-13.2770	27.2800 
547.079	-0.0371	0.0991	1.0576	-0.9338	3.4772	-13.2166	27.2800 
547.086	-0.0151	0.1035	1.0415	-0.7306	3.4772	-13.1287	27.2800 
547.106	0.0322	0.1030	0.9946	-0.4340	3.5101	-13.0023	27.2800 
547.126	0.0742	0.0645	0.9478	-0.1758	3.5211	-12.7826	27.2800 
547.147	0.0747	0.0688	0.9619	-0.0604	3.5211	-12.5903	27.2600 
547.166	0.0596	0.0728	0.9795	-0.0330	3.5486	-12.4969	27.2700 
547.186	0.0503	0.1348	0.9961	-0.0824	3.5760	-12.4091	27.2800 
547.206	0.0527	0.1104	0.9829	0.0000	3.6035	-12.3102	27.2700 
547.227	0.0532	0.0854	0.9673	0.1813	3.6255	-12.1948	27.2700 
547.259	0.0576	0.0986	0.9751	0.3296	3.6584	-12.0685	27.2700 
547.266	0.0674	0.1196	1.0010	0.3900	3.6969	-11.9037	27.2800 
547.285	0.0669	0.1460	1.0239	0.4395	3.7354	-11.6949	27.2800 
547.305	0.0454	0.1475	1.0146	0.5823	3.7793	-11.5082	27.2800 
547.325	0.0396	0.1626	1.0103	0.7745	3.8232	-11.3269	27.2800 
547.346	0.0298	0.1655	1.0000	1.0382	3.8837	-11.1401	27.2700 
547.365	0.0288	0.1602	0.9839	1.2634	3.9551	-10.9259	27.2800 
547.385	0.0444	0.1538	0.9795	1.3239	4.0485	-10.6567	27.2700 
547.405	0.0537	0.1826	0.9932	1.3623	4.1254	-10.3271	27.2800 
547.425	0.0771	0.1738	1.0122	1.4172	4.1748	-9.9811	27.2800 
547.445	0.0830	0.1558	1.0176	1.4117	4.1913	-9.6075	27.2800 
547.509	0.0654	0.1777	1.0410	1.4502	4.2297	-9.2999	27.2800 
547.511	0.0679	0.1851	1.0654	1.4612	4.3066	-9.0527	27.2800 
547.511	0.0732	0.2070	1.0991	1.4282	4.4110	-8.8055	27.2900 
547.525	0.0854	0.2085	1.1074	1.3788	4.5209	-8.5419	27.3000 
547.545	0.0977	0.2124	1.0942	1.3348	4.6307	-8.2782	27.2800 
547.565	0.0825	0.2241	1.0796	1.2964	4.7791	-8.0640	27.2800 
547.584	0.0537	0.2095	1.1196	1.2140	4.9603	-7.8882	27.2800 
547.604	0.0278	0.1938	1.1738	1.0931	5.1691	-7.7289	27.2900 
547.624	0.0347	0.1626	1.1177	0.9393	5.4163	-7.5751	27.2800 
547.643	0.0405	0.1440	1.0894	0.6702	5.7019	-7.5037	27.2800 
547.705	-0.0107	0.1255	1.1260	0.2472	6.0150	-7.5201	27.2800 
547.708	-0.0405	0.0630	1.1216	-0.0549	6.2897	-7.5256	27.2800 
547.708	-0.0825	-0.0532	1.0288	-0.2032	6.5094	-7.5366	27.2900 
547.723	-0.1426	-0.1855	0.9561	-0.3845	6.7291	-7.7124	27.2800 
547.744	-0.2202	-0.3008	1.0205	-0.7526	7.0038	-8.0695	27.2700 
547.764	-0.2241	-0.2803	1.0610	-1.3239	7.2729	-8.3716	27.2600 
547.783	-0.2319	-0.2593	1.1304	-2.1698	7.5146	-8.7122	27.2700 
547.803	-0.1855	-0.2056	1.2075	-2.8619	7.6630	-9.0143	27.2700 
547.825	-0.1348	-0.1597	1.1631	-2.9388	7.6300	-9.1296	27.2700 
547.843	-0.1143	-0.1284	1.1123	-2.7576	7.4762	-9.2230	27.2700 
547.899	-0.1089	-0.0669	1.0464	-2.3126	7.2675	-9.3494	27.2700 
547.901	-0.1235	-0.0459	0.9663	-1.9940	7.0752	-9.5087	27.2500 
547.903	-0.1602	-0.0586	0.8545	-1.8512	6.9104	-9.6790	27.2500 
547.923	-0.1982	-0.0879	0.8311	-1.8237	6.7896	-9.7943	27.2600 
547.943	-0.1816	-0.0479	0.8623	-1.4941	6.6522	-9.8602	27.2400 
547.963	-0.1162	-0.0757	0.8740	-1.2030	6.5039	-9.8108	27.2500 
547.984	-0.0581	-0.0254	0.9229	-0.9558	6.3116	-9.6954	27.2600 
548.003	-0.0679	-0.0298	0.9419	-0.5328	6.0974	-9.6405	27.2800 
548.024	-0.1177	0.0259	0.9434	-0.1044	5.8722	-9.6735	27.2500 
548.046	-0.1338	0.0664	0.9238	0.3516	5.6580	-9.7339	27.2500 
548.089	-0.0601	0.0996	0.9185	0.7910	5.4547	-9.6954	27.2500 
548.091	-0.0454	0.0967	0.9185	1.1920	5.2515	-9.6130	27.2600 
548.102	-0.0664	0.0801	0.8906	1.7853	5.0427	-9.5251	27.2400 
548.122	-0.0664	0.0811	0.9043	2.2357	4.8560	-9.4702	27.2500 
548.142	-0.0645	0.1616	0.9453	2.5104	4.7241	-9.4757	27.2500 
548.162	-0.0674	0.1577	0.9629	2.7246	4.6417	-9.4977	27.2600 
548.182	-0.0859	0.1460	0.9854	2.9004	4.5538	-9.5032	27.2600 
548.201	-0.0928	0.1543	1.0049	3.0707	4.4550	-9.4977	27.2500 
548.222	-0.0703	0.1929	1.0356	3.2959	4.3506	-9.5032	27.2300 
548.242	-0.0708	0.1890	1.0459	3.5431	4.2517	-9.5856	27.2300 
548.261	-0.0957	0.2134	1.0415	3.7134	4.1748	-9.7064	27.2400 
548.281	-0.0957	0.1860	1.0254	3.9056	4.0979	-9.7778	27.2500 
548.328	-0.0493	0.2197	1.1187	3.9716	3.9990	-9.7723	27.2600 
548.336	-0.0059	0.1812	1.2993	4.0924	3.8452	-9.7229	27.2600 
548.341	-0.0264	0.2109	1.3618	4.2407	3.6145	-9.6021	27.2500 
548.361	-0.0850	0.0952	1.3228	4.4824	3.4167	-9.4702	27.2500 
548.381	-0.0469	0.0337	1.1855	4.5044	3.2684	-9.2450	27.2700 
548.401	0.0308	-0.0132	1.0537	4.2023	3.1476	-8.8989	27.2600 
548.421	0.0479	-0.1523	0.9609	3.5266	3.0597	-8.5034	27.2500 
548.440	0.0962	-0.2100	0.9478	2.6587	2.9279	-8.0969	27.2400 
548.460	0.1489	-0.2412	1.0840	1.8402	2.7686	-7.9102	27.2700 
548.481	0.1069	-0.2437	1.1836	1.1975	2.6807	-8.0585	27.2600 
548.514	0.0459	-0.1846	1.2261	0.5438	2.7081	-8.3881	27.2600 
548.521	0.0215	-0.1343	1.2070	-0.0439	2.8290	-8.7396	27.2600 
548.540	0.0107	-0.0874	1.1538	-0.6152	3.0157	-9.0747	27.2500 
548.560	-0.0132	-0.0596	1.0425	-0.8844	3.2300	-9.3658	27.2600 
548.580	-0.0117	-0.0879	0.9595	-0.9119	3.4058	-9.5251	27.2600 
548.600	0.0288	-0.0713	0.8799	-1.0767	3.5486	-9.5416	27.2600 
548.619	0.0610	-0.0669	0.8433	-1.2140	3.6694	-9.5032	27.2600 
548.639	0.0698	-0.0859	0.7954	-1.2524	3.7683	-9.4922	27.2500 
548.660	0.0659	-0.0957	0.7988	-1.2360	3.8562	-9.4592	27.2600 
548.712	0.0781	-0.0796	0.8638	-1.3074	3.9386	-9.4537	27.2600 
548.714	0.0923	-0.0537	0.9048	-1.3074	4.0320	-9.4977	27.2700 
548.719	0.0977	-0.0225	0.9395	-1.2579	4.1089	-9.5526	27.2700 
548.741	0.0894	0.0088	0.9575	-1.1481	4.1693	-9.6295	27.2600 
548.759	0.0420	0.0469	0.9521	-0.9943	4.2188	-9.7394	27.2500 
548.779	0.0122	0.0454	0.9424	-0.7855	4.2627	-9.8492	27.2500 
548.799	-0.0073	0.0195	0.9238	-0.5273	4.3176	-9.9811	27.2500 
548.819	0.0156	0.0112	0.9600	-0.4065	4.3945	-10.0305	27.2600 
548.838	0.0723	0.0630	1.0190	-0.5438	4.4879	-9.9756	27.2700 
548.858	0.0537	0.1055	1.0166	-0.5933	4.5923	-9.9207	27.2500 
548.901	0.0034	0.1255	1.0234	-0.6042	4.7186	-9.8822	27.2400 
548.903	-0.0029	0.1602	1.0415	-0.5713	4.8834	-9.8328	27.2500 
548.918	0.0356	0.1196	1.0376	-0.4285	5.0647	-9.7064	27.2400 
548.938	0.0581	0.1069	1.0371	-0.2197	5.2570	-9.5361	27.2400 
548.958	0.0586	0.1206	1.0576	-0.0659	5.4602	-9.3933	27.2300 
548.978	0.0327	0.1362	1.0649	-0.0165	5.6799	-9.2834	27.2500 
548.998	-0.0303	0.1660	1.0693	-0.0385	5.9601	-9.2065	27.2500 
549.022	-0.0620	0.1895	1.0933	-0.0604	6.3116	-9.1516	27.2400 
549.038	-0.0967	0.1558	1.2026	-0.1538	6.7072	-9.0472	27.2400 
549.104	-0.1147	0.0669	1.3062	-0.2637	7.0807	-8.8879	27.2300 
549.109	-0.0342	0.0005	1.3184	-0.2472	7.3993	-8.6627	27.2300 
549.109	-0.0278	-0.0972	1.3398	-0.3186	7.6740	-8.5419	27.2300 
549.118	-0.0693	-0.1592	1.1997	-0.6482	7.8827	-8.6133	27.2400 
549.137	-0.1211	-0.1953	1.0884	-1.3513	8.0475	-8.8605	27.2400 
549.158	-0.1743	-0.2476	0.9849	-2.4115	8.1464	-9.2065	27.2300 
549.179	-0.2231	-0.2373	0.9844	-3.2080	8.1409	-9.4318	27.2400 
549.197	-0.2490	-0.2095	1.0757	-3.6749	8.0530	-9.3878	27.2400 
549.217	-0.1802	-0.1631	1.1050	-3.8123	7.9102	-9.0802	27.2300 
549.237	-0.1113	-0.1938	1.0903	-3.5760	7.7728	-8.7231	27.2300 
549.257	-0.1108	-0.1948	1.0522	-3.2135	7.6355	-8.4814	27.2300 
549.277	-0.0801	-0.1523	0.9951	-2.8180	7.4927	-8.3112	27.2200 
549.297	-0.0972	-0.1055	0.9683	-2.4664	7.3499	-8.2123	27.2100 
549.349	-0.1592	-0.0303	0.8975	-2.0819	7.2455	-8.2343	27.2100 
549.351	-0.1753	-0.0225	0.8569	-1.6150	7.1851	-8.2837	27.2200 
549.357	-0.1450	-0.0176	0.8501	-1.1646	7.1466	-8.3441	27.2000 
549.377	-0.1182	-0.0249	0.8516	-0.7635	7.1246	-8.3551	27.2000 
549.397	-0.1089	-0.0215	0.8462	-0.5603	7.0917	-8.3167	27.2100 
549.416	-0.1172	0.0083	0.8892	-0.3186	7.0313	-8.3057	27.2000 
549.436	-0.1216	-0.0034	0.9077	0.0000	6.9653	-8.3002	27.2000 
549.458	-0.1172	0.0532	0.9526	0.2417	6.8610	-8.3221	27.1900 
549.475	-0.1094	0.0625	0.9580	0.5768	6.7401	-8.3661	27.1800 
549.496	-0.1060	0.0742	0.9478	0.8679	6.6193	-8.4210	27.2000 
549.540	-0.1123	0.1084	0.9316	1.1261	6.5039	-8.4595	27.2000 
549.542	-0.1094	0.1060	0.9287	1.3293	6.3666	-8.4650	27.2000 
549.556	-0.1089	0.1255	0.9570	1.5436	6.1798	-8.4375	27.2100 
549.575	-0.1152	0.1626	1.0049	1.7688	5.9821	-8.4210	27.2000 
549.596	-0.1147	0.1602	1.0327	2.1204	5.8063	-8.4045	27.1900 
549.615	-0.0913	0.1802	1.0591	2.5104	5.6085	-8.3990	27.1900 
549.635	-0.0767	0.1904	1.0747	3.1091	5.3888	-8.4375	27.1900 
549.655	-0.0840	0.1748	1.0601	3.4607	5.1031	-8.4375	27.2000 
549.675	-0.0806	0.2119	1.0415	3.8068	4.7791	-8.4375	27.2100 
549.737	-0.0806	0.2358	1.0347	4.1748	4.4495	-8.4430	27.2000 
549.740	-0.0415	0.1982	1.1533	4.5099	4.1144	-8.3936	27.2100 
549.740	-0.0005	0.2280	1.2686	4.8944	3.7518	-8.3276	27.2100 
549.755	-0.0547	0.1450	1.2632	5.3394	3.4332	-8.1903	27.2000 
549.775	-0.0859	0.0981	1.2251	5.6744	3.2080	-8.0750	27.2200 
549.794	-0.0454	0.0874	1.0630	5.7404	3.0981	-7.8827	27.2200 
549.814	-0.0151	0.0068	0.9844	5.6415	3.0981	-7.6080	27.2100 
549.834	0.0923	-0.1147	0.9609	5.3723	3.1421	-7.1686	27.2000 
549.854	0.1626	-0.1392	1.0283	5.0812	3.1586	-6.6742	27.2100 
549.874	0.1860	-0.1094	1.1201	4.7516	3.1805	-6.3171	27.2100 
549.935	0.0479	-0.0361	1.1987	4.3945	3.2629	-6.2347	27.1900 
549.937	-0.0474	0.0000	1.1812	4.0045	3.4552	-6.3116	27.2100 
549.937	-0.0635	0.0356	1.0732	3.6694	3.7354	-6.3336	27.2000 
549.955	-0.0283	0.0410	0.9756	3.3728	4.0485	-6.2677	27.2100 
549.975	0.0396	0.0234	0.8579	3.2025	4.3121	-6.1139	27.2100 
549.994	0.0469	-0.0024	0.8022	3.0542	4.4989	-5.8667	27.2100 
550.014	0.0820	-0.0107	0.8066	2.8949	4.5703	-5.5261	27.2200 
550.033	0.0649	0.0166	0.8813	2.7026	4.6033	-5.1910	27.2100 
550.053	0.0244	-0.0103	0.9248	2.7191	4.6362	-4.9713	27.2000 
550.073	0.0293	-0.0112	0.9370	2.9004	4.6967	-4.8834	27.2000 
550.125	0.0938	0.0278	0.9731	2.9498	4.7736	-4.7955	27.2000 
550.127	0.1069	0.0493	0.9897	2.8180	4.8175	-4.6527	27.2000 
550.133	0.0942	0.0776	0.9854	2.6422	4.8230	-4.4934	27.2000 
550.153	0.0635	0.0903	0.9673	2.3785	4.8010	-4.3396	27.1900 
550.173	0.0254	0.1157	0.9668	2.2687	4.7900	-4.2407	27.2000 
550.193	0.0342	0.1792	0.9927	2.6093	4.8120	-4.2297	27.2000 
550.212	0.0415	0.1392	0.9727	3.1805	4.8615	-4.2627	27.1800 
550.232	0.0508	0.1582	0.9893	3.4167	4.9384	-4.2133	27.2000 
550.252	0.0679	0.1777	1.0161	3.3453	5.0757	-4.1199	27.2000 
550.273	0.0898	0.2002	1.0278	3.3728	5.2515	-4.0540	27.2000 
550.312	0.0840	0.1685	1.0098	3.6859	5.4767	-4.1583	27.2000 
550.314	0.0737	0.1426	1.0117	3.8342	5.7184	-4.3341	27.1900 
550.332	0.0254	0.1670	1.0151	3.7463	5.9711	-4.5538	27.2000 
550.352	-0.0254	0.2310	1.0156	3.5706	6.2512	-4.8175	27.1800 
550.372	-0.0962	0.2515	1.0835	3.5706	6.5808	-5.0922	27.2000 
550.392	-0.1470	0.1748	1.1904	3.5541	6.9543	-5.3394	27.2000 
550.412	-0.0962	0.1768	1.2827	3.4662	7.3553	-5.4492	27.2000 
550.431	-0.0562	0.0752	1.2886	3.6255	7.7728	-5.5536	27.1800 
550.451	-0.0811	-0.0386	1.2070	3.8013	8.1793	-5.8008	27.1900 
550.471	-0.1445	-0.1484	1.0625	3.6310	8.5748	-6.2183	27.1900 
550.491	-0.2148	-0.1650	0.9976	2.9663	8.9539	-6.7786	27.1800 
550.511	-0.2544	-0.1006	1.0659	2.1313	9.1791	-7.1082	27.1700 
550.556	-0.1953	-0.1099	1.2104	1.4337	9.2340	-7.1686	27.1700 
550.558	-0.1274	-0.0869	1.2227	1.0052	9.1791	-7.0532	27.1800 
550.571	-0.1094	-0.0522	1.1396	0.6537	9.0747	-6.9708	27.1700 
550.591	-0.1055	-0.0322	1.0532	0.5109	8.9044	-6.9269	27.1700 
550.611	-0.0967	-0.0405	0.9395	0.5603	8.6462	-6.9269	27.1600 
550.631	-0.1177	-0.0181	0.8921	0.7251	8.3771	-7.0258	27.1600 
550.651	-0.1348	-0.0225	0.8335	0.8844	8.1354	-7.1521	27.1600 
550.670	-0.1514	-0.0073	0.8252	0.9448	7.9321	-7.3004	27.1600 
550.690	-0.1543	0.0098	0.8447	0.8185	7.7728	-7.4487	27.1800 
550.744	-0.1416	0.0303	0.8589	0.7361	7.6245	-7.5806	27.1600 
550.746	-0.1289	0.0303	0.8833	0.8130	7.4872	-7.6904	27.1400 
550.750	-0.1226	0.0083	0.9043	0.8679	7.3334	-7.7563	27.1600 
550.770	-0.1201	0.0562	0.9492	0.9558	7.1906	-7.8442	27.1600 
550.790	-0.1313	0.0439	0.9429	1.1920	7.1027	-8.0200	27.1700 
550.810	-0.1357	0.1074	0.9351	1.3513	7.0367	-8.1848	27.1600 
550.830	-0.1348	0.1289	0.9458	1.5601	6.9873	-8.3002	27.1500 
550.850	-0.1216	0.1250	0.9717	1.7139	6.9159	-8.3551	27.1300 
550.869	-0.1201	0.1470	0.9971	1.7194	6.8115	-8.3826	27.1400 
550.891	-0.1299	0.1558	1.0166	1.7029	6.6687	-8.3881	27.1500 
550.936	-0.1362	0.1899	1.0327	1.7468	6.5039	-8.3716	27.1300 
550.939	-0.1270	0.2061	1.0386	1.9171	6.3116	-8.3276	27.1400 
550.949	-0.1318	0.1958	1.0186	2.1423	6.1139	-8.2727	27.1400 
550.969	-0.1274	0.1655	0.9956	2.4335	5.9271	-8.1738	27.1400 
550.989	-0.1216	0.1611	1.0015	2.6532	5.7294	-8.0255	27.1400 
551.011	-0.0806	0.2119	1.0010	2.8015	5.4822	-7.8717	27.1400 
551.029	-0.0474	0.2437	1.0444	2.9443	5.1965	-7.7124	27.1400 
551.049	0.0117	0.1597	1.2339	3.0817	4.8065	-7.5531	27.1300 
551.069	0.0103	0.1992	1.2920	3.2959	4.3616	-7.4213	27.1300 
551.090	-0.0889	0.0464	1.2485	3.6090	4.0045	-7.3334	27.1300 
551.128	-0.0996	0.0166	1.1519	3.7958	3.7683	-7.2235	27.1300 
551.130	-0.0083	-0.0698	1.0977	3.5760	3.6420	-6.9269	27.1500 
551.148	0.0923	-0.1650	0.9937	3.0103	3.5760	-6.4545	27.1400 
551.169	0.1055	-0.1831	1.0215	2.2906	3.5541	-6.0095	27.1500 
551.188	0.1025	-0.1836	1.1895	1.5161	3.4937	-5.7513	27.1600 
551.208	0.0176	-0.1089	1.2520	0.8514	3.4607	-5.7239	27.1500 
551.228	-0.0361	-0.0581	1.2202	0.4724	3.5266	-5.7074	27.1400 
551.248	-0.0562	-0.0396	1.1172	0.3021	3.6639	-5.6030	27.1400 
551.270	-0.0132	-0.0249	0.9512	0.2362	3.8617	-5.3833	27.1400 
551.289	0.0332	-0.0186	0.8926	0.1648	4.0265	-5.0372	27.1500 
551.307	0.0522	-0.0547	0.8501	0.0439	4.1034	-4.6307	27.1500 
551.327	0.0469	-0.0459	0.8477	-0.0494	4.1254	-4.2133	27.1400 
551.373	0.0103	-0.0195	0.8345	0.0385	4.1364	-3.8177	27.1400 
551.375	0.0142	-0.0171	0.8345	0.2032	4.1309	-3.3618	27.1200 
551.387	0.0493	-0.0195	0.8726	0.3680	4.1254	-2.8290	27.1400 
551.407	0.0767	0.0132	0.9268	0.5383	4.1418	-2.2906	27.1500 
551.428	0.0747	0.0234	0.9922	0.6042	4.1803	-1.7633	27.1300 
551.447	0.0610	0.0391	1.0273	0.5878	4.2407	-1.2744	27.1300 
551.467	0.0684	0.0806	1.0337	0.5713	4.3011	-0.7965	27.1300 
551.487	0.0654	0.1016	1.0303	0.5823	4.3561	-0.3516	27.1500 
551.507	0.0566	0.1201	1.0142	0.6702	4.4110	0.0604	27.1400 
551.527	0.0518	0.1240	0.9917	0.9009	4.4659	0.4944	27.1300 
551.564	0.0439	0.1309	0.9766	1.1041	4.5538	0.9338	27.1300 
551.567	0.0542	0.1328	0.9819	1.3678	4.6692	1.3623	27.1400 
551.586	0.0742	0.1152	0.9912	1.6644	4.7900	1.7523	27.1400 
551.606	0.1060	0.1011	0.9849	1.9446	4.9274	2.0215	27.1400 
551.626	0.1089	0.0991	0.9858	2.0984	5.0812	2.1423	27.1400 
551.646	0.0493	0.1860	1.0137	2.1808	5.2625	2.1094	27.1500 
551.666	-0.0596	0.1758	1.1689	2.3016	5.5096	2.0105	27.1400 
551.686	-0.1465	0.1304	1.3242	2.5653	5.7623	2.0105	27.1400 
551.706	-0.1001	0.0518	1.2993	3.0652	5.9766	2.1204	27.1300 
551.751	-0.0552	-0.0498	1.2075	3.6475	6.1469	2.1918	27.1300 
551.754	-0.1758	-0.0718	1.0591	3.8837	6.3940	2.0050	27.1400 
551.766	-0.2412	-0.1245	1.0244	3.6584	6.6632	1.6699	27.1300 
551.786	-0.2588	-0.0483	1.1533	3.1311	6.8060	1.5381	27.1300 
551.805	-0.2314	-0.0371	1.2876	2.7576	6.8170	1.7139	27.1200 
551.826	-0.0859	-0.0371	1.2510	2.6532	6.7236	2.0929	27.1400 
551.845	-0.0410	-0.0024	1.1606	2.6971	6.5204	2.5269	27.1300 
551.865	-0.0254	0.0107	1.0049	2.6093	6.2292	2.9388	27.1400 
551.885	-0.0386	0.0054	0.9189	2.5269	5.8887	3.3124	27.1200 
551.952	-0.1074	0.0493	0.8657	2.5653	5.5756	3.5925	27.1400 
551.957	-0.1416	0.0859	0.8569	2.6422	5.3284	3.8068	27.1400 
551.957	-0.1274	0.0586	0.8359	2.8290	5.1361	4.0155	27.1200 
551.965	-0.1089	0.0498	0.8345	3.0597	4.9988	4.1968	27.1200 
551.985	-0.0811	0.0566	0.8384	3.2684	4.8999	4.3726	27.1200 
552.004	-0.0493	0.0610	0.8467	3.3508	4.7955	4.6033	27.1400 
552.024	-0.0298	0.1011	0.9063	3.3893	4.6417	4.8450	27.1100 
552.044	-0.0532	0.0781	0.9224	3.4607	4.4824	5.0317	27.1300 
552.064	-0.0825	0.1113	0.9482	3.5321	4.3231	5.1855	27.1200 
552.084	-0.0688	0.1382	0.9609	3.5760	4.1913	5.2679	27.1100 
552.106	-0.0591	0.1387	0.9727	3.6365	4.0594	5.3394	27.1400 
552.144	-0.0527	0.1475	0.9727	3.7518	3.9331	5.4108	27.1200 
552.147	-0.0288	0.1846	1.0220	3.8727	3.8123	5.4657	27.1300 
552.164	-0.0220	0.2202	1.0586	3.9716	3.6639	5.4877	27.1400 
552.184	-0.0449	0.2295	1.0615	4.1254	3.4882	5.4327	27.1400 
552.204	-0.0625	0.2046	1.0415	4.3286	3.3179	5.3668	27.1300 
552.223	-0.0728	0.2109	1.0117	4.4769	3.1750	5.3009	27.1400 
552.243	-0.0591	0.1978	1.0366	4.5264	3.0652	5.2570	27.1500 
552.263	0.0063	0.1274	1.2324	4.5813	2.9663	5.2405	27.1400 
552.283	0.0493	0.1431	1.3286	4.5593	2.8564	5.2515	27.1400 
552.304	0.0088	0.0610	1.3281	4.6143	2.7191	5.1965	27.1300 
552.323	0.0210	0.0508	1.2959	4.5319	2.5928	5.2020	27.1400 
552.343	0.0786	0.0122	1.0894	4.3561	2.5488	5.2515	27.1600 
552.385	0.0811	-0.0659	0.9111	4.1089	2.5928	5.3174	27.1500 
552.388	0.1401	-0.1992	0.9028	3.6584	2.6697	5.3009	27.1600 
552.403	0.1621	-0.1611	1.0376	3.1750	2.7411	5.0922	27.1400 
552.423	0.0889	-0.0991	1.1606	2.8070	2.8729	4.5044	27.1400 
552.442	-0.0122	-0.0176	1.2114	2.5818	3.0487	3.8342	27.1400 
552.462	-0.0249	-0.0049	1.1465	2.3950	3.2794	3.2520	27.1500 
552.482	-0.0098	0.0000	1.0078	2.1698	3.5596	2.7191	27.1500 
552.502	0.0205	-0.0107	0.9634	2.1204	3.8177	2.2577	27.1400 
552.522	0.0522	-0.0298	0.8813	2.0764	3.9935	1.8512	27.1400 
552.583	0.0488	-0.0020	0.8652	2.0984	4.1089	1.4227	27.1500 
552.585	0.0576	0.0298	0.8604	2.1863	4.1858	1.0437	27.1400 
552.585	0.0684	0.0396	0.8691	2.1698	4.2352	0.7141	27.1700 
552.601	0.0586	0.0303	0.8833	2.1478	4.2407	0.4065	27.1400 
552.622	0.0747	0.0249	0.8975	2.1204	4.2078	0.2032	27.1400 
552.641	0.0864	0.0508	0.9409	2.0325	4.1803	0.0769	27.1400 
552.662	0.0864	0.0747	0.9600	1.8457	4.1638	0.0055	27.1400 
552.681	0.0576	0.0952	0.9551	1.7853	4.1803	-0.0824	27.1500 
552.701	0.0503	0.1040	0.9502	1.8127	4.2407	-0.1923	27.1400 
552.721	0.0493	0.1377	0.9590	1.8622	4.3341	-0.2582	27.1400 
552.771	0.0581	0.1563	0.9512	2.0105	4.4440	-0.2966	27.1500 
552.774	0.0557	0.1406	0.9458	2.1918	4.5868	-0.3186	27.1400 
552.781	0.0547	0.1450	0.9624	2.3181	4.7516	-0.3076	27.1400 
552.801	0.0425	0.1602	0.9834	2.3566	4.9658	-0.2911	27.1500 
552.821	0.0498	0.1396	0.9863	2.3511	5.2075	-0.2911	27.1400 
552.840	0.0620	0.1284	1.0122	2.3676	5.4767	-0.3186	27.1400 
552.861	0.0435	0.1489	1.0371	2.3511	5.7733	-0.4120	27.1300 
552.881	0.0112	0.2036	1.0737	2.2302	6.1084	-0.5493	27.1100 
552.900	-0.0352	0.2397	1.0874	2.0929	6.4764	-0.6976	27.1300 
552.920	-0.1055	0.2407	1.2544	2.1478	6.8445	-0.7251	27.1100 
552.958	-0.1206	0.1597	1.3389	2.4280	7.1466	-0.5438	27.1200 
552.960	-0.0352	-0.0200	1.2778	2.8455	7.4158	-0.2692	27.1300 
552.980	-0.0317	-0.0786	1.2119	3.0377	7.7289	-0.2032	27.1300 
553.000	-0.1787	-0.1235	1.1016	2.7521	8.1299	-0.4449	27.1200 
553.021	-0.2402	-0.1333	1.0386	2.0599	8.5309	-0.8459	27.1300 
553.040	-0.2720	-0.1147	1.1196	1.0767	8.7671	-1.0931	27.1400 
553.060	-0.2241	-0.0933	1.2769	0.4340	8.7891	-1.0162	27.1200 
553.080	-0.1431	-0.0703	1.2578	0.3296	8.6407	-0.7141	27.1500 
553.100	-0.1387	-0.0459	1.1650	0.1868	8.4210	-0.3900	27.1300 
553.121	-0.1392	0.0024	0.9927	-0.0220	8.1683	-0.1373	27.1400 
553.139	-0.1265	-0.0410	0.8960	0.0275	7.9211	0.0934	27.1300 
553.159	-0.0947	-0.0288	0.8379	0.1648	7.6630	0.3845	27.1300 
553.195	-0.1104	-0.0195	0.7969	0.3735	7.4158	0.6097	27.1200 
553.199	-0.1172	-0.0200	0.8340	0.6482	7.1741	0.7745	27.1300 
553.219	-0.1133	0.0059	0.8564	0.8240	6.9269	0.8899	27.1100 
553.239	-0.1548	-0.0166	0.8447	0.9393	6.6852	0.9613	27.1200 
553.259	-0.1699	0.0005	0.8350	0.8514	6.5314	0.9503	27.1200 
553.279	-0.1431	0.0815	0.9058	0.7635	6.4325	1.0327	27.1200 
553.298	-0.1372	0.0757	0.9292	0.8350	6.3116	1.2689	27.1400 
553.318	-0.1196	0.0806	0.9712	1.0107	6.1743	1.5491	27.1100 
553.338	-0.1133	0.1016	0.9932	1.2689	6.0260	1.8182	27.1100 
553.395	-0.0850	0.1294	1.0151	1.4777	5.8722	2.0764	27.1300 
553.397	-0.0630	0.1587	0.9985	1.6589	5.6964	2.3291	27.1300 
553.399	-0.0254	0.1621	0.9780	1.7853	5.5042	2.5653	27.1200 
553.418	-0.0190	0.1504	0.9800	1.9061	5.2844	2.7356	27.1100 
553.438	-0.0303	0.1772	1.0034	1.9940	5.0482	2.8290	27.1200 
553.458	-0.0454	0.1807	0.9976	2.0599	4.8230	2.8784	27.1100 
553.477	-0.0498	0.1851	1.0039	2.0709	4.5923	2.9388	27.1300 
553.498	-0.0537	0.1904	1.0200	2.0654	4.3671	2.9663	27.1300 
553.517	-0.0562	0.1880	1.0278	1.9830	4.1473	2.9718	27.1300 
553.537	-0.0371	0.1938	1.0239	1.8292	3.9276	2.9828	27.1300 
553.583	-0.0098	0.2266	1.0269	1.7029	3.6969	3.0212	27.1300 
553.585	0.0103	0.2393	1.0234	1.6150	3.4277	3.0542	27.1200 
553.597	0.0107	0.2275	1.0356	1.5985	3.1146	3.0103	27.1300 
553.617	0.0288	0.1333	1.1582	1.6974	2.7850	2.8455	27.1200 
553.637	0.0117	0.0010	1.2632	1.8787	2.4500	2.5049	27.1300 
553.657	-0.0044	-0.1240	1.2319	2.0380	2.1863	2.0544	27.1500 
553.677	0.0586	-0.2373	1.2593	1.8347	2.0105	1.7029	27.1400 
553.697	0.1226	-0.2344	1.2886	0.9833	1.8896	1.5381	27.1300 
553.717	0.1265	-0.1836	1.3003	0.0330	1.9006	1.4117	27.1200 
553.736	-0.0620	-0.1816	1.3169	-0.9064	2.0050	1.1426	27.1400 
553.772	-0.1147	-0.1162	1.2725	-1.6150	2.1533	0.7965	27.1300 
553.776	-0.0469	-0.0747	1.1216	-1.8787	2.4060	0.3955	27.1300 
553.796	0.0420	-0.0581	0.9795	-1.8347	2.6642	0.0220	27.1400 
553.816	0.1069	-0.0781	0.8218	-1.6699	2.8290	-0.2362	27.1400 
553.836	0.0835	-0.1250	0.7900	-1.5875	2.8839	-0.4010	27.1400 
553.856	0.0239	-0.1318	0.8491	-1.5985	2.8949	-0.5878	27.1300 
553.876	0.0200	-0.1411	0.8989	-1.6205	2.9169	-0.7361	27.1400 
553.897	0.0234	-0.0732	0.9326	-1.6644	2.9938	-0.8405	27.1400 
553.916	0.0586	-0.0361	0.9365	-1.4941	3.0927	-0.8459	27.1400 
553.938	0.0928	-0.0474	0.9468	-1.2909	3.2025	-0.7141	27.1300 
553.955	0.0928	-0.0342	0.9429	-1.1975	3.2904	-0.5383	27.1400 
553.976	0.0503	0.0269	0.9839	-0.9338	3.3838	-0.4120	27.1300 
554.011	0.0557	0.0244	1.0010	-0.6262	3.4497	-0.2966	27.1100 
554.015	0.0522	0.0605	0.9971	-0.2747	3.4937	-0.2637	27.1400 
554.035	0.0356	0.0830	0.9722	0.0659	3.5651	-0.2966	27.1200 
554.055	0.0615	0.0952	0.9541	0.3625	3.6475	-0.2692	27.1100 
554.075	0.0747	0.1177	0.9419	0.5548	3.7299	-0.1483	27.1300 
554.095	0.0688	0.1245	0.9126	0.6702	3.8452	0.0000	27.1200 
554.115	0.0601	0.1064	0.9023	0.5988	3.9990	0.1373	27.1200 
554.138	0.0537	0.1060	0.9136	0.4504	4.2133	0.2307	27.1200 
554.154	0.0596	0.1548	0.9448	0.3845	4.4495	0.2362	27.1300 
554.204	0.0615	0.1021	0.9507	0.5493	4.7076	0.2087	27.1400 
554.206	0.0537	0.1040	0.9434	0.5713	4.9768	0.1703	27.1400 
554.215	0.0078	0.1040	0.9492	0.5219	5.2789	0.1099	27.1300 
554.234	-0.0337	0.1514	0.9678	0.5164	5.6415	0.0220	27.1400 
554.254	-0.0581	0.2119	1.0034	0.5328	6.0754	0.0165	27.1200 
554.274	-0.0483	0.2212	1.0469	0.5713	6.4984	0.1868	27.1200 
554.294	-0.1113	0.0664	1.3174	0.9613	6.8445	0.5273	27.1400 
554.314	-0.1177	0.0332	1.4268	1.5381	7.1246	0.9338	27.1200 
554.338	-0.1128	-0.0815	1.2930	2.0929	7.4487	1.2140	27.1400 
554.354	-0.1592	-0.1831	1.1851	2.1313	7.8827	1.1261	27.1400 
554.394	-0.2266	-0.1528	1.1436	1.4502	8.3716	0.6152	27.1200 
554.397	-0.1978	-0.1548	1.1807	0.3790	8.6737	0.1923	27.1200 
554.413	-0.1416	-0.0781	1.3486	-0.6097	8.7122	0.1318	27.1300 
554.433	-0.1411	-0.0503	1.3071	-0.9558	8.5693	0.3186	27.1400 
554.453	-0.1777	-0.0498	1.0762	-1.1646	8.3716	0.5713	27.1300 
554.476	-0.2153	-0.0488	0.9473	-1.3293	8.2123	0.7031	27.1300 
554.493	-0.1592	-0.0615	0.8525	-1.3019	8.0969	0.7690	27.1200 
554.513	-0.1250	-0.0698	0.8491	-1.0437	7.9761	0.8569	27.1200 
554.533	-0.1030	-0.0703	0.8345	-0.6592	7.8223	0.8734	27.1100 
554.581	-0.1191	-0.0308	0.8481	-0.2637	7.6355	0.8295	27.1100 
554.583	-0.1538	0.0132	0.8374	-0.2362	7.4432	0.7416	27.1100 
554.593	-0.1528	0.0137	0.8477	-0.1428	7.2894	0.6757	27.1100 
554.613	-0.1172	0.0435	0.8921	0.1978	7.1411	0.6372	27.1100 
554.633	-0.0840	0.0298	0.9253	0.8734	6.9873	0.6097	27.1000 
554.652	-0.0903	0.0166	0.9473	1.0602	6.7786	0.6537	27.1200 
554.672	-0.0996	0.0874	0.9844	0.8789	6.5643	0.6866	27.1200 
554.692	-0.1079	0.1108	0.9844	0.9778	6.3556	0.6372	27.1100 
554.712	-0.0996	0.1387	0.9517	1.1755	6.1304	0.6097	27.1000 
554.732	-0.0703	0.1738	0.9365	1.3898	5.8777	0.6152	27.1100 
554.752	-0.0986	0.1382	0.9111	1.7798	5.6195	0.6097	27.1300 
554.772	-0.1162	0.1187	0.9087	2.0984	5.3613	0.6537	27.1200 
554.818	-0.1172	0.1235	0.9341	2.2852	5.1031	0.7526	27.1100 
554.820	-0.0767	0.1816	1.0098	2.3071	4.8285	0.8295	27.1100 
554.832	-0.0479	0.1768	1.0737	2.2247	4.5044	0.8734	27.1200 
554.852	-0.0146	0.1646	1.1030	2.0764	4.0814	0.8514	27.1300 
554.871	-0.0049	0.1699	1.1016	2.0325	3.6200	0.7855	27.1400 
554.891	-0.0234	0.2085	1.0762	2.1478	3.1421	0.6866	27.1200 
554.911	-0.0327	0.1860	1.0581	2.0599	2.6312	0.5713	27.1300 
554.931	-0.0640	0.2539	1.0288	2.0325	2.1039	0.4120	27.1300 
554.952	-0.0239	0.1885	1.1113	2.0984	1.5710	0.2911	27.1300 
555.012	0.0400	0.1172	1.3247	2.2083	1.0217	0.1318	27.1300 
555.014	-0.0356	0.0649	1.2969	2.4500	0.5548	-0.1208	27.1300 
555.014	-0.0723	-0.0679	1.2793	2.7301	0.2417	-0.3131	27.1500 
555.031	0.1064	-0.1807	1.2075	2.7411	0.0275	-0.3076	27.1400 
555.051	0.2305	-0.2451	1.2227	2.4005	-0.1263	-0.0439	27.1200 
555.071	0.2388	-0.2349	1.1958	1.6425	-0.2087	0.2966	27.1400 
555.091	0.1602	-0.1348	1.1997	1.1316	-0.1758	0.5109	27.1700 
555.111	0.0508	-0.0698	1.1108	0.7416	-0.0385	0.5603	27.1400 
555.130	0.0264	-0.0347	1.0454	0.6317	0.2362	0.4999	27.1400 
555.153	-0.0254	-0.0142	0.8896	0.5219	0.6647	0.3406	27.1400 
555.215	-0.0166	-0.0317	0.7900	0.3241	1.1591	0.1703	27.1400 
555.217	0.0288	-0.0840	0.7432	0.0659	1.6095	0.2142	27.1300 
555.217	0.0518	-0.0864	0.7793	-0.2637	1.9775	0.4504	27.1200 
555.230	0.0986	-0.0581	0.8979	-0.5273	2.2852	0.7800	27.1300 
555.250	0.1108	-0.0723	0.9409	-0.6262	2.5488	1.1646	27.1100 
555.271	0.1543	-0.0576	0.9844	-0.7690	2.7521	1.5985	27.1100 
555.289	0.1572	-0.0400	0.9951	-0.8514	2.9059	1.9995	27.1300 
555.309	0.1011	-0.0166	0.9893	-0.8514	3.0432	2.3346	27.1200 
555.330	0.0703	0.0015	0.9980	-0.7471	3.1915	2.6312	27.1300 
555.352	0.0420	0.0410	0.9873	-0.5768	3.3563	2.8894	27.1200 
555.413	0.0317	0.0596	0.9673	-0.4065	3.5651	3.0817	27.1100 
555.416	0.0469	0.0601	0.9580	-0.2417	3.7958	3.2520	27.1000 
555.416	0.0601	0.0664	0.9683	-0.1044	4.0265	3.4442	27.0900 
555.429	0.0850	0.0747	0.9580	0.0604	4.2242	3.6749	27.0800 
555.449	0.0801	0.0869	0.9722	0.2747	4.3890	3.8947	27.0900 
555.469	0.0425	0.1133	0.9946	0.5328	4.5374	4.0704	27.0900 
555.489	0.0317	0.1040	0.9951	0.7306	4.7021	4.2407	27.0900 
555.509	0.0640	0.0317	1.0498	0.6976	4.8834	4.4550	27.0800 
555.529	0.0962	0.1162	1.0103	0.6207	5.0812	4.6198	27.1000 
555.549	0.0879	0.1001	1.0396	0.6262	5.2899	4.7021	27.0800 
555.604	0.0762	0.1445	1.0796	0.5988	5.4932	4.7296	27.0700 
555.606	0.0107	0.1821	1.1196	0.4889	5.7019	4.7241	27.0800 
555.608	-0.0303	0.2188	1.0986	0.4669	5.9216	4.7296	27.0800 
555.628	-0.0103	0.1753	1.0195	0.6042	6.1194	4.8175	27.0700 
555.647	0.0220	0.1904	0.9829	0.7526	6.3116	4.9603	27.0800 
555.668	0.0366	0.1812	1.0083	0.8734	6.4764	5.1636	27.0900 
555.687	-0.0098	0.1201	1.1772	1.0712	6.5753	5.4272	27.0800 
555.708	-0.0352	0.0078	1.3511	1.1261	6.6083	5.6909	27.0800 
555.728	-0.0435	-0.0767	1.3438	0.9448	6.6302	5.8282	27.0800 
555.748	-0.1450	-0.1108	1.2354	0.5273	6.6907	5.6854	27.0600 
555.767	-0.1973	-0.1284	1.0625	-0.2252	6.7950	5.1746	27.0600 
555.788	-0.1846	-0.2383	0.9692	-1.3403	6.8610	4.6582	27.0700 
555.850	-0.2500	-0.2134	1.0684	-2.3071	6.8390	4.3616	27.0600 
555.852	-0.2832	-0.1772	1.2007	-2.8125	6.7072	4.3616	27.0700 
555.852	-0.2158	-0.1406	1.1948	-3.0542	6.4929	4.6252	27.0600 
555.867	-0.1528	-0.1182	1.0586	-3.1641	6.3062	4.9548	27.0600 
555.887	-0.1069	-0.1304	0.9883	-3.1805	6.1798	5.2185	27.0600 
555.907	-0.0337	-0.1255	0.9170	-3.1036	6.0315	5.4602	27.0500 
555.928	-0.0347	-0.1167	0.8936	-2.9553	5.8447	5.6140	27.0500 
555.947	-0.0513	-0.0767	0.8984	-2.7026	5.6195	5.7239	27.0400 
555.967	-0.1260	-0.0771	0.9209	-2.3016	5.4218	5.6964	27.0500 
555.986	-0.1968	-0.0674	0.9067	-1.9446	5.3119	5.5316	27.0400 
556.043	-0.1714	-0.0566	0.9043	-1.6974	5.3064	5.3064	27.0500 
556.050	-0.0957	-0.0352	0.9473	-1.4832	5.3448	5.1306	27.0500 
556.053	-0.0874	-0.0054	0.9790	-1.2799	5.3448	5.0098	27.0500 
556.065	-0.1284	-0.0176	0.9878	-1.0382	5.2570	4.9329	27.0200 
556.086	-0.1367	0.0195	0.9634	-0.9448	5.1196	4.8340	27.0200 
556.106	-0.1279	0.0762	0.9307	-0.8350	4.9713	4.7571	27.0300 
556.126	-0.1270	0.0620	0.9019	-0.5383	4.8120	4.7626	27.0300 
556.145	-0.1284	0.0371	0.9033	-0.2637	4.6472	4.8505	27.0500 
556.167	-0.1265	0.0649	0.9326	-0.0659	4.4989	4.9768	27.0400 
556.186	-0.1060	0.0898	0.9639	0.1813	4.3451	5.1746	27.0500 
556.243	-0.1021	0.1099	0.9575	0.5603	4.1583	5.4108	27.0400 
556.245	-0.1079	0.1206	0.9673	0.8185	3.9496	5.6799	27.0400 
556.245	-0.1162	0.1201	0.9795	1.0272	3.7463	5.9711	27.0500 
556.265	-0.0942	0.1260	1.0005	1.1700	3.5266	6.3116	27.0600 
556.286	-0.0615	0.1250	1.0337	1.2744	3.2739	6.7181	27.0500 
556.305	-0.0605	0.1792	1.0825	1.4941	2.9663	7.1576	27.0500 
556.325	-0.0439	0.1426	1.0859	1.5326	2.5653	7.7344	27.0300 
556.345	-0.0254	0.2036	1.0674	1.7523	2.0544	8.3112	27.0400 
556.365	-0.0229	0.2178	1.0205	2.1149	1.4832	8.9044	27.0400 
556.385	-0.0190	0.2070	1.0498	2.3566	0.8899	9.5087	27.0600 
556.442	-0.0293	0.1108	1.1816	2.5323	0.2692	10.0635	27.0500 
556.445	-0.0835	0.0278	1.2373	2.7795	-0.2637	10.5908	27.0500 
556.445	-0.1040	-0.0977	1.2500	2.8125	-0.6812	11.2500	27.0600 
556.464	-0.0410	-0.1338	1.1440	2.5104	-0.9943	12.2113	27.0600 
556.484	0.0239	-0.2568	1.1201	1.7633	-1.1865	13.5956	27.0600 
556.504	0.0396	-0.2324	1.1733	0.7855	-1.2634	15.2325	27.0500 
556.524	-0.0381	-0.1797	1.2119	-0.2252	-1.2469	16.8695	27.0600 
556.544	-0.0542	-0.1460	1.1836	-0.7690	-1.1096	18.4900	27.0600 
556.564	0.0151	-0.1689	1.1025	-0.8624	-0.9174	20.2094	27.0800 
556.586	0.0537	-0.1201	1.0117	-0.6866	-0.7581	22.0386	27.0800 
556.643	0.0732	-0.0967	0.9312	-0.4724	-0.6866	23.9886	27.0700 
556.645	0.0581	-0.1304	0.9429	-0.2856	-0.6757	26.0486	27.0600 
556.645	-0.0039	-0.1362	0.9907	-0.0934	-0.6866	28.1854	27.0500 
556.663	-0.0376	-0.1377	0.9976	0.1154	-0.6757	30.3772	27.0700 
556.683	-0.0684	-0.1338	0.9966	0.2087	-0.6152	32.7228	27.0600 
556.703	-0.0518	-0.1025	1.0020	0.1703	-0.5219	35.2441	27.0700 
556.723	-0.0327	-0.0938	1.0039	0.1538	-0.4449	38.0731	27.0500 
556.743	-0.0273	-0.1216	0.9878	0.2032	-0.4120	41.1493	27.0600 
556.763	-0.0264	-0.1245	0.9937	0.3406	-0.4175	44.3848	27.0700 
556.786	-0.0059	-0.1021	0.9995	0.4669	-0.3790	47.6422	27.0600 
556.832	0.0269	-0.0825	0.9883	0.4999	-0.2637	50.8337	27.0500 
556.835	0.1138	-0.0674	1.0146	0.5878	-0.1648	53.9758	27.0500 
556.842	0.1279	-0.1060	1.0259	0.7141	-0.0879	56.9531	27.0800 
556.862	0.1582	-0.0801	1.0454	1.0272	-0.0055	59.7272	27.0600 
556.882	0.2129	-0.0317	1.0518	1.4392	0.0824	62.1826	27.0600 
556.902	0.2188	0.0049	1.0225	1.7249	0.1868	64.3579	27.0700 
556.922	0.1948	0.0229	0.9385	1.9171	0.3186	66.1871	27.0600 
556.942	0.1938	0.0078	0.8750	1.9611	0.4724	67.7197	27.0600 
556.962	0.1279	0.0508	0.8242	1.8127	0.7086	68.8788	27.0500 
556.983	0.0674	0.0791	0.8525	1.5271	1.0712	69.6259	27.0500 
557.026	0.0049	0.0664	0.9395	1.1316	1.5106	70.1697	27.0500 
557.028	0.0244	0.0967	0.9482	0.6757	1.9501	70.6421	27.0500 
557.042	0.1313	0.0337	0.9521	0.2252	2.3016	71.1475	27.0500 
557.062	0.1572	0.0371	0.9751	0.1648	2.4994	71.6144	27.0600 
557.081	0.1533	0.1328	1.0664	-0.1373	2.6312	72.0758	27.0600 
557.101	0.1362	0.1079	1.0669	-0.0879	2.6971	72.4713	27.0700 
557.121	0.0703	0.1221	1.0479	0.1813	2.7356	72.8009	27.0600 
557.141	0.0044	0.1558	1.0576	0.4559	2.8455	73.0426	27.0900 
557.161	-0.0273	0.2124	1.0801	0.4999	3.0597	73.1854	27.0600 
557.214	-0.0146	0.1846	1.0498	0.5438	3.3508	73.3337	27.0600 
557.218	0.0093	0.1743	1.0596	0.6866	3.7134	73.5205	27.0800 
557.221	0.0347	0.2275	1.0688	0.9778	4.0869	73.7238	27.0800 
557.241	0.0449	0.1909	1.0957	1.1865	4.4330	73.9490	27.0700 
557.261	0.0117	0.1099	1.2119	1.3074	4.7516	74.2401	27.0600 
557.281	-0.0127	0.0269	1.3042	1.3623	5.0702	74.5917	27.0700 
557.301	-0.0322	-0.0796	1.2573	1.5820	5.4492	74.7729	27.0700 
557.320	-0.1099	-0.1260	1.1616	1.4392	5.9106	74.8004	27.0800 
557.340	-0.2090	-0.1528	1.0859	0.9229	6.4105	74.8004	27.0700 
557.360	-0.2495	-0.2339	1.0132	0.0385	6.8555	75.0092	27.0900 
557.380	-0.2212	-0.2725	1.0610	-0.9503	7.0862	75.4706	27.0800 
557.400	-0.2251	-0.2344	1.1465	-1.5985	7.0587	76.1078	27.0800 
557.464	-0.1948	-0.2134	1.1567	-1.9830	6.9434	76.8439	27.0800 
557.466	-0.0933	-0.1724	1.1274	-2.0215	6.7566	77.4811	27.0800 
557.466	-0.0620	-0.1509	1.0879	-1.9391	6.5369	78.0359	27.0900 
557.480	-0.0547	-0.1123	1.0127	-1.5601	6.3116	78.5248	27.0800 
557.499	-0.0903	-0.1040	0.9355	-1.1536	6.0699	79.0192	27.0900 
557.519	-0.1201	-0.0503	0.8623	-0.6757	5.8557	79.4586	27.0900 
557.539	-0.1260	-0.0645	0.8389	-0.0714	5.6744	79.8871	27.0800 
557.559	-0.1118	-0.0439	0.8521	0.5658	5.5481	80.2716	27.0800 
557.579	-0.0732	-0.0767	0.8428	0.9668	5.3888	80.7001	27.0600 
557.599	-0.0781	-0.0869	0.8560	1.2689	5.2350	81.1121	27.0600 
557.657	-0.0840	-0.0283	0.9380	1.3898	5.1416	81.3977	27.0600 
557.660	-0.0840	-0.0024	0.9878	1.5381	5.0922	81.5955	27.0500 
557.660	-0.1147	0.0469	0.9937	1.7413	5.0867	81.6888	27.0300 
557.678	-0.0908	0.0801	0.9458	2.3181	5.0977	81.6669	27.0300 
557.699	-0.0552	0.0938	0.9072	2.6971	5.0482	81.7548	27.0500 
557.718	-0.0449	0.0845	0.9194	2.9828	4.9548	81.8921	27.0500 
557.738	-0.0586	0.0786	0.9307	3.2574	4.8615	82.0239	27.0500 
557.758	-0.0806	0.1030	0.9502	3.4387	4.7955	82.0294	27.0500 
557.778	-0.0991	0.1294	0.9663	3.7573	4.7626	81.9690	27.0500 
557.798	-0.0869	0.1411	1.0122	4.0430	4.7461	81.8756	27.0600 
557.844	-0.0728	0.1895	1.0586	4.5099	4.7021	81.7657	27.0500 
557.847	-0.0737	0.1855	1.0532	4.8999	4.6088	81.6394	27.0600 
557.858	-0.0610	0.1978	1.0571	5.1251	4.4824	81.5240	27.0400 
557.878	-0.0537	0.2139	1.0630	5.3119	4.3286	81.3593	27.0200 
557.898	-0.0605	0.2085	1.0732	5.3778	4.1254	81.3428	27.0600 
557.918	-0.0229	0.2373	1.0815	5.2240	3.8562	81.4087	27.0500 
557.937	0.0020	0.2188	1.0820	5.3174	3.4991	81.4252	27.0500 
557.958	0.0278	0.1636	1.1782	5.4218	3.0817	81.4911	27.0600 
557.977	-0.0083	0.1304	1.2461	5.5316	2.6477	81.5570	27.0500 
558.041	-0.0703	0.0527	1.2080	5.5865	2.3071	81.7053	27.0500 
558.043	-0.0410	-0.0269	1.1382	5.4218	2.1094	82.0074	27.0400 
558.043	0.0425	-0.1328	1.1226	4.9384	1.9775	82.3755	27.0600 
558.057	0.1318	-0.1997	1.1016	4.2517	1.8842	82.7930	27.0500 
558.077	0.1304	-0.2207	1.1055	3.3728	1.8677	83.1830	27.0600 
558.097	0.0415	-0.2148	1.1514	2.5104	1.9611	83.5071	27.0700 
558.117	0.0356	-0.1689	1.1626	1.9006	2.1533	83.7708	27.0600 
558.137	0.0039	-0.1084	1.1343	1.6150	2.4664	83.9191	27.0600 
558.157	0.0254	-0.0410	1.0654	1.5985	2.8070	83.9795	27.0500 
558.177	0.0728	-0.0654	0.9297	1.7963	3.0927	84.0399	27.0600 
558.235	0.0645	-0.0889	0.8716	1.9940	3.3289	84.1223	27.0600 
558.239	0.0381	-0.0796	0.8633	2.0709	3.5541	84.2157	27.0500 
558.239	0.0547	-0.0366	0.8628	2.0764	3.7573	84.2651	27.0700 
558.256	0.0718	-0.0225	0.8481	2.1204	3.9166	84.2981	27.0600 
558.276	0.0664	-0.0410	0.8413	2.2467	4.0485	84.3695	27.0500 
558.296	0.0767	-0.0151	0.8789	2.3730	4.1803	84.4189	27.0500 
558.316	0.0684	-0.0151	0.9092	2.4500	4.3286	84.4409	27.0400 
558.336	0.0479	0.0063	0.9590	2.4774	4.4879	84.4684	27.0300 
558.356	0.0376	0.0298	0.9912	2.5378	4.6362	84.5068	27.0200 
558.376	0.0181	0.0469	0.9932	2.6642	4.7571	84.5178	27.0400 
558.397	0.0254	0.0605	0.9941	2.7356	4.8505	84.5453	27.0500 
558.415	0.0303	0.1040	0.9766	2.8180	4.9603	84.5618	27.0400 
558.435	0.0264	0.0977	0.9805	3.0212	5.0867	84.5728	27.0500 
558.481	0.0415	0.1284	1.0068	3.1805	5.2185	84.6222	27.0300 
558.483	0.0649	0.1528	1.0479	3.2684	5.3613	84.6826	27.0300 
558.495	0.0830	0.1719	1.0684	3.4387	5.4822	84.7540	27.0400 
558.515	0.0767	0.1733	1.0664	3.6804	5.5756	84.7925	27.0300 
558.535	0.0854	0.1401	1.0391	3.9166	5.6689	84.7815	27.0300 
558.555	0.0879	0.1284	1.0283	4.1034	5.7733	84.7156	27.0300 
558.574	0.0225	0.1753	1.0327	4.2792	5.9326	84.5233	27.0400 
558.594	-0.0142	0.2476	1.0513	4.3835	6.1414	84.3091	27.0400 
558.614	-0.0601	0.2222	1.1680	4.6198	6.3501	84.1937	27.0300 
558.634	-0.0752	0.1509	1.2666	4.8779	6.5314	84.2596	27.0200 
558.669	-0.0186	0.0615	1.2080	5.3394	6.6083	84.4574	27.0200 
558.674	-0.0483	-0.0708	1.1616	5.7898	6.7072	84.6332	27.0300 
558.694	-0.1567	-0.1211	1.0830	5.8337	6.8445	84.7870	27.0300 
558.714	-0.2402	-0.1968	1.0791	5.4602	6.9873	85.0287	27.0300 
558.734	-0.2734	-0.1582	1.1548	4.8834	7.0972	85.3418	27.0200 
558.754	-0.2251	-0.1675	1.2358	4.3890	7.1686	85.6439	27.0400 
558.774	-0.0933	-0.0991	1.2710	4.0265	7.1796	85.9351	27.0200 
558.794	-0.0737	-0.0352	1.2310	3.6310	7.1301	86.1658	27.0200 
558.814	-0.1045	-0.0073	1.0835	3.1915	7.0093	86.3580	27.0100 
558.859	-0.0908	-0.0093	0.9814	3.0212	6.8829	86.5283	27.0200 
558.861	-0.0708	-0.0200	0.8887	3.0322	6.7950	86.6382	27.0200 
558.873	-0.0640	-0.0317	0.8149	3.1201	6.7126	86.7096	27.0200 
558.893	-0.0806	-0.0288	0.8228	3.2574	6.6248	86.7700	27.0100 
558.913	-0.1289	0.0181	0.8462	3.5266	6.5753	86.7261	27.0000 
558.933	-0.1348	-0.0049	0.8398	3.6749	6.6138	86.6711	27.0100 
558.953	-0.1240	0.0059	0.8828	3.6365	6.6852	86.6766	27.0100 
558.973	-0.1313	0.0093	0.9023	3.6200	6.7511	86.6327	27.0000 
558.993	-0.1338	0.0552	0.9375	3.6639	6.7841	86.5997	27.0100 
559.013	-0.1372	0.0742	0.9487	3.8013	6.8115	86.5283	27.0000 
559.033	-0.1406	0.1323	0.9668	4.0430	6.8170	86.3690	26.9900 
559.053	-0.1250	0.1401	0.9453	4.3890	6.8115	86.2427	26.9900 
559.105	-0.0811	0.1587	0.9175	4.8175	6.7841	86.0449	27.0000 
559.108	-0.0703	0.1328	0.9141	5.1526	6.7346	85.8307	27.0000 
559.112	-0.0669	0.1719	0.9253	5.3284	6.6302	85.5780	27.0000 
559.132	-0.0659	0.2046	0.9438	5.3888	6.4709	85.2264	27.0000 
559.152	-0.0781	0.2354	0.9658	5.4877	6.2567	84.8914	26.9900 
559.172	-0.1045	0.2227	0.9502	5.5756	6.0260	84.5837	26.9900 
559.192	-0.1143	0.2144	0.9424	5.7074	5.7953	84.3585	27.0000 
559.212	-0.1138	0.1729	0.9697	5.7513	5.5865	84.2542	26.9900 
559.232	-0.1069	0.2158	1.0171	5.6744	5.3888	84.2157	26.9800 
559.252	-0.0635	0.2437	1.0620	5.5316	5.1801	84.1937	26.9900 
559.292	-0.0020	0.2666	1.0908	5.4437	4.9164	84.1553	26.9900 
559.295	0.0088	0.2661	1.0796	5.3723	4.5978	84.1003	27.0000 
559.311	0.0273	0.1851	1.2349	5.2789	4.1968	84.1058	26.9800 
559.331	0.0327	0.1855	1.3589	5.3064	3.7848	84.0894	26.9700 
559.351	-0.0669	0.0747	1.2725	5.4218	3.4607	84.2267	26.9800 
559.371	-0.0977	0.0093	1.1924	5.3174	3.2300	84.6497	26.9800 
559.391	-0.0288	-0.1206	1.1099	4.7626	3.1201	85.2264	26.9900 
559.413	0.0264	-0.1611	1.0718	4.0704	3.1256	85.7867	26.9900 
559.430	0.0469	-0.2100	1.1133	3.1421	3.2190	86.2811	26.9800 
559.482	0.0479	-0.1597	1.1772	2.2632	3.3453	86.6052	26.9900 
559.485	0.0044	-0.0991	1.1768	1.7194	3.5321	86.7755	26.9900 
559.491	-0.0142	-0.0928	1.1362	1.4392	3.7903	86.9019	26.9900 
559.511	-0.0308	-0.0479	1.0654	1.2415	4.1254	86.9897	27.0000 
559.530	-0.0410	-0.0112	1.0015	1.0712	4.4934	87.0612	27.0000 
559.550	-0.0542	-0.0088	0.8999	0.9119	4.8724	87.1600	26.9900 
559.570	-0.0400	-0.0527	0.8672	0.7141	5.2020	87.3688	26.9900 
559.589	-0.0068	-0.0645	0.8301	0.5713	5.4602	87.6050	27.0100 
559.609	-0.0122	-0.0684	0.8164	0.5438	5.6470	87.8851	27.0100 
559.630	0.0283	-0.0654	0.8389	0.6262	5.7843	88.2147	27.0000 
559.672	0.0591	-0.0625	0.8633	0.6702	5.8832	88.5278	27.0000 
559.673	0.0449	-0.0083	0.9155	0.6207	5.9711	88.7421	26.9900 
559.690	0.0396	0.0205	0.9502	0.5383	6.0590	88.8629	26.9900 
559.710	0.0513	0.0313	0.9888	0.5713	6.1249	88.9508	26.9800 
559.729	0.0342	0.0532	1.0073	0.6262	6.1798	89.0222	26.9900 
559.750	0.0195	0.0830	1.0078	0.6976	6.2238	89.0002	26.9900 
559.769	0.0103	0.0869	1.0039	0.7635	6.2787	88.9398	26.9900 
559.789	-0.0093	0.1187	1.0112	0.9119	6.3501	88.8629	26.9700 
559.809	-0.0151	0.1392	1.0132	1.1646	6.4105	88.8354	26.9900 
559.831	-0.0107	0.1431	1.0479	1.4008	6.4545	88.9178	26.9900 
559.849	0.0225	0.1333	1.0474	1.6205	6.4764	89.0222	26.9900 
559.869	0.0747	0.1104	1.0146	1.8457	6.4819	89.0662	26.9900 
559.909	0.0659	0.0898	1.0049	1.8896	6.4929	89.0332	27.0000 
559.911	0.0278	0.1167	1.0225	1.8951	6.5753	88.8849	26.9900 
559.929	-0.0054	0.1772	1.0386	1.9391	6.7181	88.6432	26.9900 
559.948	-0.0811	0.2422	1.0571	1.9611	6.9543	88.3795	27.0000 
559.968	-0.1001	0.2583	1.0483	2.0325	7.2345	88.2147	26.9800 
559.989	-0.1211	0.1724	1.1724	2.2522	7.5366	88.3081	27.0000 
560.008	-0.1807	0.0620	1.2622	2.5488	7.8497	88.6322	27.0000 
560.030	-0.1167	-0.0684	1.2417	2.7466	8.1848	89.1101	26.9800 
560.048	-0.1528	-0.1064	1.1772	2.6147	8.5254	89.6155	26.9800 
560.097	-0.2749	-0.2339	1.0850	1.9006	8.8824	90.0989	26.9700 
560.100	-0.2275	-0.2837	1.0557	0.8405	9.1187	90.6042	26.9900 
560.108	-0.0879	-0.2485	1.2690	-0.0604	9.1296	91.0272	26.9900 
560.128	-0.0386	-0.2285	1.3247	-0.6592	8.9594	91.3129	26.9900 
560.148	-0.0464	-0.1538	1.2612	-0.9283	8.6462	91.4777	26.9900 
560.168	-0.1328	-0.0615	1.0864	-1.1096	8.3331	91.5491	26.9700 
560.187	-0.1572	-0.0049	0.9590	-1.2469	8.0804	91.6315	26.9700 
560.208	-0.1436	-0.0088	0.8521	-1.0107	7.8662	91.8237	26.9800 
560.230	-0.1201	-0.0850	0.7993	-0.7086	7.6465	92.1588	26.9800 
560.247	-0.1294	-0.0757	0.7944	-0.5054	7.4817	92.4005	26.9900 
560.287	-0.1489	-0.0391	0.8286	-0.2966	7.3444	92.5543	26.9800 
560.289	-0.1543	-0.0103	0.8618	-0.1318	7.2070	92.6093	26.9800 
560.307	-0.1299	-0.0327	0.8892	-0.0934	7.0862	92.6642	26.9800 
560.327	-0.1187	-0.0532	0.9316	-0.0989	6.9708	92.6807	26.9800 
560.347	-0.1113	-0.0347	0.9619	-0.2362	6.8390	92.6422	26.9800 
560.367	-0.0693	0.0527	0.9951	-0.2527	6.6797	92.4829	26.9800 
560.386	-0.0811	0.0767	0.9756	-0.1813	6.4764	92.2577	26.9700 
560.406	-0.0830	0.0771	0.9478	0.0000	6.2732	92.0435	26.9900 
560.426	-0.0801	0.1021	0.9604	0.3296	6.0315	91.8951	26.9600 
560.476	-0.0972	0.1196	0.9854	0.6152	5.7788	91.7688	26.9700 
560.478	-0.0952	0.1484	0.9927	0.9338	5.5481	91.6699	26.9700 
560.485	-0.0747	0.1733	0.9600	1.2140	5.3229	91.5546	26.9800 
560.506	-0.0664	0.1592	0.9629	1.4227	5.0922	91.4392	26.9600 
560.526	-0.0747	0.1426	0.9644	1.7358	4.8450	91.3568	26.9600 
560.546	-0.0908	0.1382	0.9668	2.0050	4.6252	91.3019	26.9600 
560.566	-0.0679	0.1558	1.0054	2.1423	4.4385	91.2689	26.9600 
560.585	-0.0684	0.1943	1.0425	2.1753	4.2627	91.2085	26.9800 
560.606	-0.1006	0.2017	1.0571	2.1753	4.0924	91.1481	26.9600 
560.625	-0.0981	0.1943	1.0503	2.2522	3.9551	91.1536	26.9700 
560.646	-0.0410	0.2153	1.0396	2.3236	3.8123	91.1591	26.9600 
560.665	-0.0078	0.2261	1.0444	2.4005	3.6090	91.1206	26.9600 
560.713	0.0376	0.1357	1.2017	2.5433	3.2959	91.0986	26.9600 
560.715	0.0269	0.1157	1.3047	2.7521	2.9279	91.1041	26.9800 
560.725	-0.0435	0.0186	1.2876	2.9938	2.5818	91.1810	26.9700 
560.745	-0.0337	-0.0225	1.2339	3.1476	2.2961	91.3678	26.9600 
560.765	0.0601	-0.1055	1.1553	2.9718	2.0929	91.5985	26.9700 
560.786	0.1069	-0.1875	1.0703	2.4390	1.9336	91.9061	26.9900 
560.805	0.0820	-0.2881	1.1177	1.7194	1.8292	92.3016	26.9800 
560.825	0.0415	-0.2554	1.1982	0.9503	1.7743	92.6642	26.9800 
560.844	-0.0776	-0.0840	1.2217	0.4065	1.8842	92.9169	26.9800 
560.865	-0.0669	-0.0142	1.1660	0.2087	2.1423	93.0377	26.9800 
560.901	-0.0068	-0.0112	0.9683	0.1703	2.4335	93.1915	26.9900 
560.904	0.0200	-0.0400	0.8696	0.2582	2.6917	93.4113	26.9900 
560.924	0.0259	-0.0708	0.8047	0.3296	2.8674	93.7079	26.9900 
560.944	0.0259	-0.0693	0.8105	0.3790	2.9718	93.9990	26.9900 
560.964	0.0342	-0.0649	0.8452	0.4449	3.0267	94.3506	26.9800 
560.984	0.0479	-0.0264	0.8877	0.6097	3.0487	94.7076	26.9700 
561.008	0.0483	-0.0532	0.9287	0.8734	3.0652	95.1691	26.9800 
561.024	0.0601	-0.0249	0.9409	1.0986	3.0487	95.7239	26.9800 
561.048	0.0776	0.0283	0.9717	1.2964	3.0048	96.2732	26.9700 
561.105	0.0723	0.0259	0.9814	1.4557	2.9279	96.8719	26.9700 
561.108	0.0596	0.0547	0.9775	1.6260	2.8510	97.4597	26.9900 
561.108	0.0474	0.0620	0.9800	1.7963	2.7795	98.0090	26.9800 
561.123	0.0596	0.1050	0.9937	1.9556	2.7411	98.4979	26.9700 
561.143	0.0596	0.1099	0.9893	2.0929	2.7356	98.9594	26.9900 
561.162	0.0366	0.1450	0.9868	2.3511	2.7850	99.4263	26.9700 
561.183	0.0181	0.1641	0.9985	2.5983	2.8894	99.9152	26.9800 
561.202	0.0303	0.1538	0.9956	2.7795	3.0322	100.4370	26.9800 
561.223	0.0674	0.1353	0.9917	2.9224	3.1750	100.9973	26.9800 
561.243	0.1011	0.1455	1.0010	3.0157	3.2849	101.5521	26.9900 
561.297	0.1133	0.1494	1.0020	3.0542	3.3728	102.0795	26.9800 
561.299	0.0996	0.1655	1.0225	3.0212	3.4497	102.5574	26.9900 
561.302	0.0815	0.1626	1.0200	2.9883	3.5376	103.0133	26.9900 
561.323	0.0518	0.2427	1.0254	2.9993	3.6365	103.4473	26.9800 
561.342	0.0391	0.2563	1.0000	3.0927	3.7354	103.9142	27.0000 
561.362	0.0479	0.2646	0.9248	3.1970	3.7958	104.4635	26.9800 
561.382	0.0498	0.1895	0.8726	3.2739	3.8068	105.1282	26.9800 
561.402	-0.0469	0.0273	1.0986	3.2080	3.7903	106.0895	26.9800 
561.422	-0.1372	-0.1001	1.3472	2.8564	3.7628	107.3254	26.9800 
561.442	-0.2383	-0.1958	1.3506	2.3236	3.8013	108.6768	26.9800 
561.496	-0.2842	-0.2217	1.2896	1.5216	4.0649	109.8853	26.9900 
561.502	-0.2402	-0.2783	1.2197	-0.0220	4.4055	110.8411	26.9700 
561.506	-0.1006	-0.2080	1.1704	-1.6150	4.6802	111.6815	26.9800 
561.521	-0.1108	-0.1733	1.2188	-3.1915	4.8944	112.4451	26.9800 
561.541	-0.3003	-0.2148	1.2729	-4.2517	4.9109	113.6700	26.9700 
561.561	-0.4316	-0.2026	1.2681	-4.3561	4.8779	115.4773	26.9900 
561.581	-0.3857	-0.1455	1.1372	-4.0869	5.0098	117.4768	26.9800 
561.601	-0.2759	-0.1885	1.0083	-3.9935	5.3394	119.2511	26.9900 
561.621	-0.1548	-0.1499	0.8882	-3.9386	5.7129	120.7507	26.9800 
561.641	-0.1455	-0.1631	0.8403	-3.8727	5.9436	122.3273	26.9900 
561.693	-0.1729	-0.1338	0.8096	-3.8727	6.0370	124.1290	26.9700 
561.698	-0.2021	-0.1294	0.8066	-3.7354	6.0590	126.1285	26.9800 
561.702	-0.2295	-0.1143	0.8140	-3.4113	6.0699	128.2214	26.9700 
561.721	-0.2578	-0.1040	0.8149	-3.0542	6.1359	130.4626	26.9600 
561.741	-0.2842	-0.1133	0.8496	-2.8235	6.2897	132.9016	26.9600 
561.762	-0.2632	-0.0957	0.9131	-2.6971	6.4929	135.4340	26.9600 
561.780	-0.2266	-0.0972	1.0020	-2.6807	6.6467	138.0212	26.9700 
561.800	-0.2197	-0.1343	1.0420	-2.7795	6.7346	140.6964	26.9700 
561.820	-0.1660	-0.1069	1.0732	-2.7356	6.7456	143.3496	26.9600 
561.840	-0.1528	-0.0713	1.0630	-2.6257	6.6962	145.8325	26.9600 
561.861	-0.1567	-0.0435	1.0181	-2.3181	6.6302	148.2166	26.9600 
561.880	-0.1533	-0.0552	0.9966	-2.1368	6.5918	150.6281	26.9600 
561.932	-0.1167	-0.0576	0.9736	-2.1918	6.5863	153.1165	26.9600 
561.934	-0.0762	-0.0420	0.9673	-2.0709	6.5753	155.4950	26.9600 
561.940	-0.0679	-0.0376	0.9712	-1.8951	6.5094	157.6208	26.9500 
561.959	-0.0659	-0.0137	0.9878	-1.8073	6.3885	159.5874	26.9400 
561.980	-0.0459	0.0049	0.9893	-1.4337	6.2073	161.2573	26.9400 
561.999	-0.0303	0.0347	1.0005	-0.9064	5.9491	162.6636	26.9600 
562.020	-0.0269	0.0840	1.0176	-0.3296	5.6195	163.8281	26.9500 
562.039	-0.0234	0.0889	1.0083	0.1923	5.3009	164.8004	26.9700 
562.060	-0.0278	0.0781	0.9746	0.4340	5.0043	165.6573	26.9500 
562.080	-0.0098	0.1128	1.0010	0.4285	4.6967	166.3660	26.9700 
562.124	-0.0137	0.0850	1.0303	0.2197	4.3945	166.8054	26.9700 
562.126	-0.0220	0.1436	1.0591	0.1428	4.0979	167.0801	26.9500 
562.139	-0.0532	0.1372	1.0571	0.3131	3.7958	167.3053	26.9600 
562.158	-0.0488	0.1680	1.0615	0.3625	3.4277	167.4591	26.9600 
562.178	-0.0889	0.1616	1.0781	0.5219	3.0927	167.5415	26.9600 
562.198	-0.1094	0.1792	1.1230	0.5713	2.8125	167.7557	26.9700 
562.218	-0.0879	0.2100	1.1157	0.7526	2.5378	167.9974	26.9700 
562.239	-0.0713	0.1992	1.1152	1.0217	2.2687	168.2446	26.9700 
562.258	-0.0581	0.1030	1.1587	1.2909	2.0380	168.5028	26.9500 
562.313	-0.0522	0.1118	1.2373	1.5820	1.8457	168.7335	26.9700 
562.315	-0.0322	0.0742	1.2124	1.8512	1.7139	169.0686	26.9600 
562.318	0.0088	-0.0659	1.1465	1.9501	1.6205	169.5740	26.9900 
562.338	0.0942	-0.1875	1.0215	1.8182	1.5601	170.1398	26.9700 
562.362	0.1426	-0.2563	0.9790	1.4777	1.5106	170.6232	26.9700 
562.378	0.1240	-0.2720	1.0557	0.9888	1.4667	170.9363	26.9800 
562.398	0.0767	-0.2466	1.1650	0.7471	1.5875	171.3373	26.9700 
562.418	0.0195	-0.0991	1.2061	0.5823	1.8018	171.6998	26.9800 
562.437	0.0391	-0.1426	1.1216	0.3955	2.0435	172.0789	26.9700 
562.458	0.0430	-0.1001	0.9663	0.0385	2.3016	172.5073	26.9800 
562.513	0.0303	-0.0952	0.9136	-0.1428	2.6422	173.0182	26.9800 
562.516	0.0386	-0.1147	0.8916	-0.0934	3.0267	173.5126	26.9800 
562.519	0.0396	-0.1162	0.8872	-0.1593	3.3783	174.0015	26.9800 
562.537	0.0464	-0.1030	0.9150	-0.1813	3.7408	174.4629	26.9900 
562.557	0.0654	-0.1025	0.9253	-0.1978	4.0979	174.9408	26.9800 
562.577	0.1079	-0.0869	0.9395	-0.2966	4.4385	175.3033	26.9900 
562.597	0.1528	-0.0684	0.9546	-0.4504	4.7241	175.5286	26.9900 
562.616	0.0796	-0.0322	0.9922	-0.4724	4.9768	175.6769	26.9800 
562.636	0.0581	-0.0356	1.0029	-0.3131	5.1965	175.8911	26.9800 
562.656	0.0449	-0.0273	0.9912	0.0165	5.3394	176.0834	26.9800 
562.699	0.0439	0.0137	0.9922	0.3461	5.4382	176.1548	26.9800 
562.703	0.0400	0.0142	0.9893	0.7635	5.4987	176.1658	26.9800 
562.716	0.0313	0.0254	0.9863	1.1151	5.5261	176.1932	26.9900 
562.736	0.0127	0.0674	0.9834	1.2305	5.5646	176.2372	26.9900 
562.756	-0.0005	0.0952	0.9771	1.2799	5.6085	176.3251	26.9800 
562.776	0.0083	0.0928	0.9678	1.4282	5.6250	176.4404	26.9900 
562.796	0.0161	0.0557	0.9756	1.6095	5.6085	176.5613	26.9800 
562.816	0.0137	0.0620	0.9951	1.7249	5.5920	176.7316	26.9800 
562.836	0.0205	0.0830	1.0371	1.8347	5.5811	176.8854	26.9600 
562.855	0.0410	0.0913	1.0283	1.9611	5.5811	177.0282	26.9900 
562.876	0.0952	0.0420	1.0527	2.2083	5.6030	177.0831	26.9800 
562.894	0.0879	0.0615	1.0806	2.2247	5.6635	177.0337	26.9900 
562.945	0.0557	0.1665	1.1353	2.2632	5.8063	176.8524	26.9900 
562.947	0.0225	0.2178	1.1504	2.2522	5.9985	176.6272	26.9900 
562.955	0.0342	0.2256	1.1084	2.3676	6.1633	176.3965	26.9900 
562.975	0.0449	0.1968	1.0483	2.6093	6.2347	176.2427	26.9900 
562.995	-0.0024	0.1416	1.0947	2.9333	6.2897	176.2372	26.9900 
563.015	-0.0400	0.1069	1.1450	3.2410	6.3721	176.3580	27.0000 
563.035	-0.0674	0.0156	1.1753	3.5760	6.5314	176.4349	26.9900 
563.054	-0.0923	-0.0376	1.2363	3.7683	6.7896	176.3965	26.9800 
563.075	-0.0952	-0.0127	1.1646	3.7848	7.0917	176.2921	26.9700 
563.094	-0.1323	-0.1055	1.0317	3.5596	7.3444	176.2262	26.9900 
563.133	-0.1792	-0.1899	0.9526	3.0872	7.4872	176.2811	26.9700 
563.135	-0.2217	-0.2261	1.0229	2.4060	7.5037	176.6052	26.9900 
563.154	-0.2271	-0.1543	1.1489	1.8732	7.4652	177.1710	26.9900 
563.174	-0.1831	-0.0791	1.1709	1.4502	7.4432	177.7313	26.9800 
563.194	-0.1274	-0.0830	1.1133	1.0602	7.4048	178.2037	26.9800 
563.214	-0.0859	-0.0977	1.0518	0.8899	7.3224	178.5773	26.9700 
563.234	-0.0508	-0.0488	0.9819	1.0162	7.1796	178.8959	27.0000 
563.254	-0.0508	-0.0483	0.9189	1.1261	6.9708	179.2255	26.9800 
563.274	-0.0664	-0.0044	0.8730	1.3623	6.7291	179.5441	26.9600 
563.325	-0.0962	0.0171	0.8442	1.7578	6.4984	179.8846	26.9700 
563.328	-0.1235	0.0049	0.8394	2.0764	6.3281	-179.7418	26.9800 
563.336	-0.1172	0.0127	0.8457	2.3236	6.2073	-179.4067	26.9700 
563.353	-0.0820	0.0181	0.8740	2.5708	6.1139	-179.1431	26.9700 
563.373	-0.0869	0.0366	0.9219	2.7466	6.0040	-178.9398	26.9700 
563.393	-0.1108	0.0488	0.9702	2.9718	5.8667	-178.6761	26.9700 
563.412	-0.1094	0.0977	0.9863	3.2300	5.7349	-178.3795	26.9600 
563.432	-0.0840	0.1167	0.9512	3.5760	5.6030	-178.0609	26.9600 
563.452	-0.0566	0.1060	0.9292	3.8947	5.4492	-177.7753	26.9600 
563.476	-0.0210	0.1333	0.9312	4.3011	5.2515	-177.5665	26.9400 
563.511	-0.0264	0.1382	0.9478	4.6143	5.0317	-177.4127	26.9500 
563.516	-0.0361	0.1572	0.9600	4.6747	4.8065	-177.3413	26.9500 
563.532	-0.0420	0.1602	0.9785	4.6252	4.5978	-177.3303	26.9600 
563.552	-0.0693	0.1807	1.0229	4.5813	4.4165	-177.3303	26.9600 
563.572	-0.1187	0.1826	1.0278	4.6088	4.2957	-177.2369	26.9500 
563.592	-0.1284	0.1733	1.0444	4.5758	4.2297	-177.0557	26.9600 
563.612	-0.0996	0.2046	1.0728	4.5209	4.1858	-176.8799	26.9400 
563.632	-0.0728	0.2124	1.1113	4.4440	4.1254	-176.7426	26.9600 
563.652	-0.0269	0.2715	1.1318	4.5154	4.0045	-176.6711	26.9500 
563.672	0.0381	0.2310	1.1655	4.5813	3.7518	-176.6931	26.9600 
563.692	0.0703	0.1982	1.2563	4.7351	3.3673	-176.8195	26.9600 
563.712	-0.0112	0.1182	1.2554	5.0592	2.9718	-176.8909	26.9700 
563.751	-0.0386	0.0112	1.2373	5.3009	2.6587	-176.8744	26.9800 
563.753	0.0269	-0.0776	1.1089	5.2350	2.4445	-176.9293	26.9600 
563.772	0.1089	-0.1650	1.0640	5.0098	2.3291	-177.0337	26.9600 
563.791	0.1851	-0.2573	1.0425	4.4495	2.2577	-177.2040	26.9500 
563.811	0.1328	-0.2646	1.1318	3.7079	2.2083	-177.4457	26.9800 
563.831	0.0107	-0.1475	1.2271	3.0432	2.2247	-177.7643	26.9900 
563.851	-0.0420	-0.0474	1.2227	2.7356	2.3840	-178.0444	26.9700 
563.871	-0.0146	-0.0122	1.0830	2.6862	2.6367	-178.2532	26.9600 
563.893	0.0186	-0.0073	0.9771	2.6038	2.8949	-178.4894	26.9700 
563.937	0.0381	-0.0239	0.8604	2.4335	3.1036	-178.7531	26.9700 
563.940	0.0313	-0.0347	0.8306	2.2577	3.2794	-178.9728	26.9700 
563.951	0.0518	-0.0010	0.8096	2.3181	3.3838	-179.1211	26.9700 
563.970	0.0508	-0.0059	0.7925	2.4939	3.4332	-179.2090	26.9600 
563.991	0.0620	-0.0278	0.8105	2.7356	3.4552	-179.2365	26.9400 
564.011	0.0684	-0.0171	0.8657	2.9718	3.4991	-179.2419	26.9500 
564.030	0.0679	0.0010	0.9438	3.0597	3.5486	-179.2035	26.9500 
564.050	0.0566	0.0010	0.9800	3.0048	3.6255	-179.1101	26.9600 
564.070	0.0503	0.0010	1.0205	2.8290	3.7299	-178.9453	26.9700 
564.093	0.0557	0.0591	1.0396	2.6642	3.8727	-178.7915	26.9700 
564.133	0.0693	0.0962	1.0254	2.5543	4.0540	-178.6707	26.9600 
564.136	0.0708	0.1069	1.0073	2.5214	4.2188	-178.5773	26.9500 
564.150	0.0645	0.1128	1.0259	2.7631	4.4000	-178.5004	26.9400 
564.170	0.0679	0.1421	1.0225	2.9608	4.5868	-178.4674	26.9600 
564.189	0.0605	0.1636	1.0137	3.1421	4.8010	-178.5168	26.9700 
564.210	0.0454	0.1709	1.0054	3.3289	5.0043	-178.5608	26.9600 
564.230	0.0498	0.1655	0.9995	3.4991	5.1965	-178.5938	26.9700 
564.249	0.0630	0.1528	0.9912	3.6255	5.3833	-178.6597	26.9600 
564.269	0.0620	0.1201	0.9692	3.5980	5.5920	-178.7915	26.9600 
564.291	0.0264	0.1670	0.9736	3.5706	5.8502	-178.9673	26.9600 
564.309	0.0083	0.2026	1.0103	3.4882	6.1414	-179.1541	26.9800 
564.329	-0.0088	0.2700	1.0649	3.4772	6.4435	-179.2749	26.9600 
564.371	-0.0137	0.2974	1.0537	3.5431	6.7236	-179.3079	26.9700 
564.373	0.0200	0.2412	1.0298	3.6804	6.9269	-179.3518	26.9700 
564.389	0.0015	0.1719	1.1147	3.9001	7.0587	-179.3903	26.9600 
564.409	-0.0293	0.0586	1.2891	3.9716	7.1851	-179.4507	26.9700 
564.428	-0.0840	-0.0620	1.4111	3.8672	7.3499	-179.5770	26.9700 
564.448	-0.1846	-0.1196	1.2402	3.6200	7.5970	-179.6869	26.9700 
564.468	-0.2441	-0.1895	1.1064	3.0103	7.9596	-179.8187	26.9700 
564.488	-0.1782	-0.1543	1.0073	1.7688	8.2892	-179.9615	26.9700 
564.508	-0.1646	-0.1641	1.0688	0.5054	8.3990	-179.8846	26.9600 
564.558	-0.1929	-0.2051	1.1772	-0.3406	8.2617	-179.4452	26.9800 
564.561	-0.1694	-0.1411	1.1934	-0.7416	8.0695	-178.8794	26.9800 
564.568	-0.1382	-0.0845	1.0938	-0.8185	7.9211	-178.3795	26.9700 
564.587	-0.0952	-0.0605	1.0073	-0.7141	7.7893	-178.0005	26.9800 
564.608	-0.0493	-0.0654	0.9063	-0.4944	7.6245	-177.7313	26.9800 
564.628	-0.0483	-0.0757	0.8682	-0.3351	7.4377	-177.5610	26.9700 
564.648	-0.0811	-0.0352	0.8560	-0.1758	7.2510	-177.4292	26.9700 
564.667	-0.1162	0.0000	0.8550	0.0330	7.0642	-177.2260	26.9700 
564.687	-0.1631	0.0098	0.8584	0.3076	6.8829	-176.9623	26.9600 
564.708	-0.1577	0.0034	0.8696	0.6097	6.7566	-176.6876	26.9700 
564.754	-0.1138	-0.0107	0.8989	0.8844	6.6577	-176.4569	26.9700 
564.756	-0.0771	0.0210	0.9258	1.1206	6.5588	-176.3855	26.9500 
564.767	-0.0459	0.0640	0.9551	1.3348	6.4435	-176.4185	26.9500 
564.787	-0.0640	0.0547	0.9473	1.5601	6.2897	-176.4240	26.9700 
564.807	-0.0850	0.1001	0.9473	1.6534	6.1249	-176.3800	26.9500 
564.827	-0.0776	0.1357	0.9448	1.7468	5.9766	-176.3416	26.9600 
564.846	-0.0684	0.1567	0.9321	1.9226	5.8337	-176.3361	26.9600 
564.866	-0.0537	0.1597	0.9458	2.1808	5.6689	-176.3361	26.9500 
564.886	-0.0586	0.1260	0.9683	2.3840	5.4712	-176.3580	26.9700 
564.908	-0.0771	0.1504	1.0103	2.4939	5.2570	-176.3635	26.9600 
564.943	-0.0801	0.2158	1.0913	2.5763	5.0427	-176.3031	26.9500 
564.946	-0.0972	0.2256	1.0903	2.6807	4.8395	-176.1768	26.9400 
564.966	-0.1016	0.2007	1.0552	2.8345	4.6582	-175.9680	26.9600 
564.986	-0.0894	0.1895	1.0542	2.9773	4.4824	-175.7648	26.9400 
565.005	-0.0591	0.1919	1.0586	3.0597	4.3121	-175.5231	26.9400 
565.025	-0.0059	0.2451	1.0698	2.9938	4.0869	-175.3473	26.9400 
565.045	0.0547	0.2529	1.0991	2.9608	3.7793	-175.3033	26.9400 
565.066	0.0518	0.1680	1.1992	3.0157	3.3838	-175.3802	26.9500 
565.085	-0.0273	0.1670	1.2651	3.1750	2.9498	-175.4681	26.9600 
565.106	-0.0820	-0.0176	1.2344	3.3398	2.5763	-175.4022	26.9500 
565.125	0.0034	-0.0845	1.1548	3.2849	2.3071	-175.3033	26.9600 
565.145	0.0723	-0.1416	1.1074	3.0762	2.1478	-175.3088	26.9300 
565.191	0.1587	-0.1978	1.0435	2.7191	2.0325	-175.3693	26.9500 
565.193	0.1597	-0.2788	1.0786	1.9611	1.9336	-175.4462	26.9300 
565.205	0.0952	-0.1943	1.1704	1.1865	1.9226	-175.6165	26.9500 
565.225	0.0020	-0.0796	1.1782	0.5328	2.0709	-175.9570	26.9400 
565.245	-0.0249	-0.0117	1.1016	0.1593	2.3895	-176.3690	26.9400 
565.265	0.0098	0.0161	1.0259	-0.0220	2.7191	-176.7535	26.9300 
565.284	0.0410	-0.0596	0.8936	-0.1373	2.9718	-177.0612	26.9300 
565.305	0.0488	-0.1147	0.8315	-0.2417	3.1750	-177.3578	26.9300 
565.324	0.0024	-0.1055	0.8506	-0.3406	3.3344	-177.5610	26.9300 
565.380	-0.0034	-0.0586	0.8950	-0.4175	3.4882	-177.6215	26.9300 
565.383	0.0337	-0.0024	0.9487	-0.4285	3.6090	-177.5281	26.9300 
565.385	0.0811	-0.0166	0.9473	-0.4285	3.6914	-177.3853	26.9300 
565.404	0.1230	-0.0146	0.9395	-0.3076	3.7244	-177.3083	26.9300 
565.423	0.1206	0.0112	0.9331	-0.0714	3.7189	-177.2809	26.9200 
565.443	0.0903	0.0396	0.9326	0.2142	3.6749	-177.1820	26.9300 
565.464	0.0254	0.0396	0.9253	0.4889	3.6365	-176.9568	26.9200 
565.484	0.0161	0.0576	0.9404	0.7306	3.6255	-176.6327	26.9200 
565.504	0.0332	0.1021	0.9834	0.7800	3.6749	-176.3251	26.9200 
565.524	0.0542	0.1289	1.0122	0.8954	3.7738	-176.1108	26.9300 
565.566	0.0630	0.0972	0.9951	1.1096	3.9111	-175.9241	26.9300 
565.569	0.0601	0.1118	1.0063	1.2305	4.0979	-175.7373	26.9300 
565.583	0.0674	0.1323	1.0171	1.2469	4.3121	-175.5780	26.9300 
565.603	0.0688	0.1484	1.0195	1.2579	4.5374	-175.4791	26.9200 
565.623	0.0879	0.1240	1.0229	1.2744	4.7516	-175.4736	26.9200 
565.643	0.1108	0.1108	1.0200	1.3184	4.9438	-175.6274	26.9300 
565.663	0.0981	0.1123	0.9917	1.2085	5.1471	-175.8966	26.9200 
565.683	0.0493	0.1475	0.9878	1.1316	5.3833	-176.1713	26.9200 
565.703	0.0020	0.2095	0.9985	1.0657	5.6635	-176.3416	26.9300 
565.763	-0.0122	0.2061	0.9858	0.8954	5.9601	-176.4459	26.9000 
565.766	-0.0645	0.1079	1.1191	0.6592	6.2402	-176.4404	26.9200 
565.766	-0.0952	0.0479	1.2773	0.4010	6.5314	-176.3910	26.9200 
565.782	-0.0327	-0.1060	1.2681	0.3076	6.8665	-176.5283	26.9100 
565.802	-0.0957	-0.1763	1.2261	0.1263	7.2565	-176.8579	26.9100 
565.822	-0.2725	-0.2529	1.1016	-0.5933	7.7179	-177.1930	26.9100 
565.842	-0.2798	-0.2847	1.0947	-1.8622	8.0914	-177.4292	26.9100 
565.862	-0.2070	-0.1978	1.2056	-3.0432	8.2343	-177.4402	26.9200 
565.882	-0.1675	-0.1709	1.3389	-3.7738	8.1738	-177.2534	26.9000 
565.902	-0.1270	-0.1353	1.2661	-4.0100	7.9156	-176.8195	26.9200 
565.960	-0.1401	-0.1147	1.1943	-4.0100	7.6300	-176.2811	26.9000 
565.966	-0.1318	-0.0649	1.0146	-3.7958	7.3883	-175.7043	26.9100 
565.966	-0.0786	-0.0459	0.9180	-3.3234	7.1960	-175.2264	26.9200 
565.982	-0.0405	-0.0723	0.8120	-2.8345	6.9928	-174.8914	26.9300 
566.006	-0.0439	-0.1074	0.7817	-2.4554	6.7731	-174.6332	26.9100 
566.023	-0.0972	-0.0508	0.7954	-2.0874	6.5424	-174.4189	26.9100 
566.041	-0.1250	-0.0479	0.8086	-1.7249	6.3446	-174.2047	26.9100 
566.061	-0.1289	-0.0161	0.8306	-1.3019	6.2183	-174.0399	26.9200 
566.081	-0.1206	-0.0063	0.8657	-0.8789	6.1798	-173.9081	26.9000 
566.101	-0.0942	0.0186	0.9380	-0.6427	6.1688	-173.8147	26.8900 
566.152	-0.1001	0.0166	0.9502	-0.5109	6.1414	-173.7982	26.9000 
566.156	-0.0996	0.1045	0.9961	-0.1099	6.1523	-173.8257	26.9000 
566.160	-0.1196	0.1030	0.9814	0.2802	6.1194	-173.7268	26.8800 
566.180	-0.1206	0.0996	0.9473	0.7086	6.0590	-173.5785	26.8900 
566.200	-0.1045	0.1260	0.9390	1.1920	6.0095	-173.4631	26.8800 
566.220	-0.0469	0.1538	0.9404	1.7853	5.9216	-173.3698	26.8800 
566.240	-0.0068	0.1436	0.9648	2.1973	5.7513	-173.3368	26.8800 
566.260	-0.0928	0.1538	1.0254	2.3566	5.5536	-173.3038	26.8800 
566.280	-0.1299	0.1768	1.0400	2.3621	5.4272	-173.1720	26.8700 
566.300	-0.1421	0.2158	1.0562	2.3730	5.3394	-172.9193	26.8800 
566.320	-0.1177	0.2007	1.0493	2.4719	5.2405	-172.6556	26.8900 
566.340	-0.0610	0.2334	1.0557	2.6587	5.1141	-172.4579	26.8600 
566.389	-0.0166	0.2485	1.0483	2.9388	4.9274	-172.3645	26.8600 
566.392	0.0264	0.2744	1.0146	3.1915	4.6472	-172.3920	26.8700 
566.399	0.0557	0.1899	1.1045	3.3948	4.2572	-172.5238	26.8800 
566.419	0.0249	0.1147	1.2607	3.5431	3.7903	-172.7106	26.8600 
566.439	-0.0791	-0.0146	1.2139	3.6639	3.4167	-172.8040	26.8700 
566.459	-0.0415	-0.0664	1.1206	3.4058	3.2190	-172.8534	26.8700 
566.479	0.0879	-0.1895	1.1367	2.7411	3.1256	-172.8809	26.8700 
566.499	0.2051	-0.2476	1.1406	1.7194	3.0872	-172.9413	26.8700 
566.520	0.0972	-0.2305	1.2046	0.7086	3.1696	-173.1885	26.8900 
566.538	-0.0586	-0.0928	1.3130	-0.2142	3.3673	-173.5510	26.8600 
566.579	-0.0708	0.0151	1.3135	-0.9174	3.6804	-173.8586	26.8600 
566.581	-0.0176	0.0103	1.0859	-1.2579	4.0265	-174.0894	26.8900 
566.599	0.0356	-0.0259	0.9351	-1.3239	4.3451	-174.3036	26.8700 
566.619	0.0566	-0.0371	0.7964	-1.2799	4.6252	-174.5563	26.8700 
566.638	0.0229	-0.0869	0.7510	-1.2964	4.8834	-174.7705	26.8700 
566.658	0.0210	-0.0669	0.8179	-1.2579	5.1196	-174.9628	26.8700 
566.678	0.0327	-0.0352	0.8462	-1.1975	5.3448	-175.1385	26.8800 
566.698	0.0552	-0.0400	0.8496	-0.9833	5.5151	-175.2979	26.8700 
566.718	0.0679	-0.0537	0.8760	-0.7361	5.6305	-175.4187	26.8700 
566.770	0.0728	-0.0229	0.9199	-0.4944	5.6964	-175.5341	26.8800 
566.773	0.0669	0.0049	0.9595	-0.3735	5.7129	-175.6329	26.8800 
566.777	0.0498	0.0391	0.9814	-0.1923	5.7019	-175.6989	26.8800 
566.798	0.0093	0.0518	0.9722	-0.0330	5.6909	-175.7813	26.8800 
566.818	0.0073	0.0791	0.9814	0.0659	5.7239	-175.8582	26.8900 
566.838	0.0220	0.1001	1.0186	0.1978	5.8173	-175.9406	26.8800 
566.857	0.0366	0.1177	1.0337	0.3076	5.9161	-175.9790	26.8700 
566.877	0.0376	0.1489	1.0386	0.4559	5.9821	-175.9570	26.8500 
566.898	0.0034	0.1563	1.0474	0.6317	6.0809	-175.8032	26.8500 
566.917	0.0127	0.1465	1.0688	0.8514	6.2238	-175.5505	26.8700 
566.939	0.0474	0.1348	1.0708	1.0712	6.3721	-175.3802	26.8600 
566.957	0.0859	0.0698	1.0522	1.3348	6.5259	-175.3967	26.8600 
567.008	0.0688	0.1133	1.0356	1.4996	6.6962	-175.5396	26.8700 
567.010	-0.0752	0.2578	1.0825	1.6479	6.9653	-175.4791	26.8600 
567.017	-0.1338	0.2256	1.1777	1.6754	7.3004	-175.1111	26.8800 
567.036	-0.1323	0.1509	1.2739	1.9391	7.5751	-174.6057	26.8700 
567.056	-0.0649	0.0518	1.2026	2.5653	7.7618	-174.1223	26.8600 
567.076	-0.0728	-0.0913	1.1123	2.9993	7.9047	-173.7762	26.8600 
567.097	-0.1602	-0.0552	1.0103	2.9663	8.1079	-173.4961	26.8400 
567.117	-0.2852	-0.1465	0.9590	2.3346	8.3496	-173.1171	26.8600 
567.136	-0.3135	-0.1250	1.0703	1.5765	8.5089	-172.5677	26.8600 
567.156	-0.2490	-0.1235	1.3008	1.0712	8.5693	-171.9031	26.8600 
567.194	-0.0854	-0.0879	1.3145	0.8514	8.5583	-171.3757	26.8500 
567.196	-0.0161	-0.0479	1.1680	0.7910	8.4045	-171.1670	26.8700 
567.216	-0.0747	-0.0088	1.0264	0.6866	8.1793	-171.0406	26.8700 
567.236	-0.0840	0.0308	0.8911	0.7141	7.9266	-170.8044	26.8500 
567.256	-0.1206	0.0103	0.8066	0.8789	7.6465	-170.4803	26.8500 
567.276	-0.1743	0.0562	0.7935	1.2140	7.4323	-170.0903	26.8400 
567.295	-0.1509	0.0103	0.8110	1.6205	7.2400	-169.7113	26.8500 
567.315	-0.0830	-0.0122	0.8438	1.8237	7.0752	-169.5850	26.8500 
567.335	-0.0698	0.0107	0.8501	1.8732	6.9049	-169.6344	26.8400 
567.384	-0.1108	0.0571	0.9170	1.8567	6.6962	-169.7003	26.8500 
567.386	-0.1431	0.0259	0.9712	1.9501	6.4600	-169.6454	26.8500 
567.395	-0.1558	0.0767	1.0073	2.0929	6.2567	-169.5740	26.8400 
567.415	-0.1411	0.1050	1.0273	2.3840	6.1194	-169.5190	26.8500 
567.435	-0.0796	0.1528	1.0317	2.7740	5.9766	-169.5355	26.8500 
567.455	-0.0537	0.1792	1.0088	3.2794	5.8447	-169.6783	26.8400 
567.475	-0.0845	0.1563	0.9297	3.6914	5.7239	-169.7717	26.8400 
567.495	-0.1240	0.1875	0.9272	3.9771	5.6580	-169.7607	26.8400 
567.514	-0.1108	0.2358	0.9424	4.1199	5.6140	-169.6729	26.8400 
567.534	-0.1157	0.2388	0.9570	4.2297	5.5865	-169.5685	26.8500 
567.555	-0.0938	0.2192	0.9902	4.2957	5.5591	-169.5245	26.8600 
567.574	-0.0938	0.2051	0.9771	4.3231	5.5151	-169.4861	26.8400 
567.625	-0.0942	0.1592	0.9663	4.3011	5.4547	-169.3762	26.8400 
567.628	-0.0850	0.2031	0.9985	4.1199	5.3998	-169.2609	26.8500 
567.634	-0.0386	0.2349	1.0493	3.9880	5.3229	-169.2114	26.8600 
567.654	-0.0103	0.2559	1.0625	3.9880	5.1746	-169.2719	26.8500 
567.674	-0.0210	0.2744	1.0405	4.0594	4.9438	-169.3872	26.8500 
567.694	-0.0225	0.1919	1.1509	4.1913	4.6527	-169.5520	26.8500 
567.713	-0.0576	0.1367	1.2280	4.3835	4.3561	-169.8212	26.8600 
567.733	-0.0894	0.0059	1.1890	4.5099	4.1364	-169.9805	26.8500 
567.754	0.0454	-0.0879	1.1895	4.3726	3.9935	-170.1892	26.8400 
567.773	0.1567	-0.1504	1.1982	3.8562	3.8782	-170.5133	26.8500 
567.813	0.0977	-0.2441	1.1519	2.8784	3.8562	-170.7825	26.8700 
567.816	-0.0195	-0.1694	1.1919	1.7413	3.9606	-170.9912	26.8500 
567.839	-0.1045	-0.0063	1.2427	0.9119	4.2023	-171.2054	26.8500 
567.853	-0.0815	0.0288	1.2012	0.4559	4.5374	-171.4417	26.8500 
567.873	-0.0303	0.0518	1.0156	0.2856	4.9109	-171.7328	26.8500 
567.893	-0.0029	0.0327	0.8818	0.2637	5.2625	-172.0184	26.8600 
567.913	-0.0112	0.0020	0.7578	0.2197	5.5646	-172.2437	26.8600 
567.933	-0.0605	-0.0322	0.7290	0.1868	5.8228	-172.3260	26.8700 
567.954	-0.0586	-0.0356	0.8262	0.1483	6.0809	-172.2766	26.8600 
568.000	0.0059	-0.0239	0.8989	0.0494	6.3116	-172.2437	26.8600 
568.002	0.0474	-0.0225	0.9644	-0.0769	6.4874	-172.2876	26.8500 
568.012	0.0552	-0.0161	0.9805	-0.1758	6.6083	-172.3370	26.8500 
568.032	0.0513	-0.0132	0.9766	-0.3021	6.6907	-172.3810	26.8600 
568.052	0.0327	0.0439	1.0054	-0.3955	6.7511	-172.4194	26.8400 
568.072	0.0366	0.0620	1.0132	-0.3790	6.7841	-172.4799	26.8600 
568.092	0.0225	0.0693	1.0073	-0.3186	6.8005	-172.6172	26.8600 
568.112	0.0083	0.1045	1.0005	-0.2087	6.8335	-172.7930	26.8700 
568.132	-0.0098	0.1431	0.9824	-0.0879	6.9104	-172.9742	26.8600 
568.154	-0.0059	0.1479	0.9888	0.0385	7.0148	-173.1226	26.8500 
568.190	0.0063	0.1431	1.0146	0.1923	7.1356	-173.2764	26.8600 
568.193	0.0103	0.1489	1.0293	0.3571	7.2455	-173.4467	26.8600 
568.211	0.0371	0.1245	1.0073	0.5878	7.3389	-173.6719	26.8500 
568.231	0.0557	0.0776	0.9800	0.7141	7.4487	-174.0839	26.8600 
568.251	0.0151	0.0942	0.9937	0.7361	7.5970	-174.6112	26.8500 
568.271	-0.0732	0.1831	1.0225	0.7086	7.8552	-174.9957	26.8500 
568.291	-0.1709	0.2080	1.0874	0.5768	8.2672	-175.1221	26.8400 
568.311	-0.2324	0.1826	1.2290	0.4230	8.7561	-175.0726	26.8500 
568.332	-0.2104	0.0088	1.2563	0.5768	9.2010	-174.8749	26.8500 
568.354	-0.1743	-0.1011	1.2480	0.7086	9.6240	-174.6936	26.8400 
568.371	-0.1343	-0.1372	1.1631	0.4340	10.0415	-174.6881	26.8500 
568.391	-0.1650	-0.2183	1.0718	-0.2087	10.4041	-174.8364	26.8500 
568.428	-0.2104	-0.1772	1.0410	-1.1151	10.5798	-174.9023	26.8500 
568.430	-0.2695	-0.1826	1.1377	-1.8842	10.6018	-174.7266	26.8600 
568.451	-0.2056	-0.1245	1.2393	-2.2467	10.4919	-174.3860	26.8500 
568.470	-0.1489	-0.0996	1.1841	-2.4280	10.3052	-174.0948	26.8400 
568.491	-0.0864	-0.0488	1.0820	-2.6477	10.0195	-173.9081	26.8400 
568.510	-0.0903	-0.0640	0.9629	-2.7795	9.6625	-173.7543	26.8400 
568.529	-0.1050	-0.0537	0.8716	-2.7686	9.2999	-173.5400	26.8400 
568.550	-0.1104	-0.0171	0.8384	-2.6477	8.9374	-173.3972	26.8400 
568.570	-0.1475	0.0127	0.8394	-2.1588	8.6243	-173.2654	26.8400 
568.618	-0.1543	-0.0112	0.8208	-1.7194	8.3167	-173.0676	26.8400 
568.620	-0.1353	0.0215	0.8120	-1.2964	8.0090	-172.9248	26.8400 
568.630	-0.1309	0.0176	0.8252	-0.9778	7.7344	-172.7820	26.8300 
568.649	-0.1357	0.0205	0.8667	-0.8679	7.4542	-172.5513	26.8200 
568.669	-0.1382	0.0469	0.9248	-0.9998	7.1521	-172.2601	26.8400 
568.689	-0.1514	0.0581	0.9673	-1.0107	6.8774	-171.9855	26.8300 
568.709	-0.1343	0.0845	0.9814	-0.8075	6.6083	-171.7657	26.8200 
568.729	-0.1201	0.0854	0.9800	-0.5383	6.3391	-171.5570	26.8200 
568.749	-0.1108	0.1040	1.0029	-0.1978	6.0974	-171.3867	26.8200 
568.769	-0.1074	0.1240	0.9961	0.1428	5.8667	-171.2054	26.8300 
568.806	-0.0933	0.1436	1.0293	0.3735	5.6030	-171.0077	26.8200 
568.809	-0.0928	0.1426	1.0776	0.5878	5.3009	-170.8209	26.8300 
568.829	-0.1094	0.1304	1.0728	0.8514	5.0043	-170.6342	26.8300 
568.848	-0.1216	0.1167	1.0308	1.0876	4.7516	-170.4749	26.8400 
568.868	-0.0986	0.1602	1.0210	1.2634	4.5428	-170.3265	26.8400 
568.888	-0.0166	0.1577	1.1250	1.4227	4.3121	-170.2716	26.8400 
568.908	0.0562	0.0894	1.2651	1.6260	3.9825	-170.4584	26.8400 
568.928	0.0420	0.0898	1.3125	2.0270	3.5870	-170.7825	26.8300 
568.948	-0.0020	-0.0332	1.3081	2.5708	3.2355	-171.0846	26.8400 
568.996	0.0688	-0.0435	1.2217	2.8674	2.9773	-171.4087	26.8400 
569.001	0.1655	-0.0034	1.0806	2.8180	2.8290	-171.8701	26.8400 
569.008	0.1772	-0.2051	0.9131	2.1808	2.7686	-172.4359	26.8400 
569.027	0.1333	-0.2168	0.9556	1.3074	2.7631	-173.0182	26.8300 
569.047	-0.0195	-0.1074	1.1587	0.7251	2.9169	-173.6554	26.8500 
569.067	-0.0605	-0.0225	1.2207	0.2252	3.1696	-174.2596	26.8400 
569.088	-0.0127	0.0308	1.1221	0.1154	3.4607	-174.7266	26.8600 
569.107	0.0181	0.0317	0.9844	0.2087	3.7354	-175.1166	26.8500 
569.127	0.0508	-0.0073	0.8169	0.2582	3.9825	-175.4681	26.8400 
569.147	0.0493	-0.0449	0.7813	0.1099	4.1858	-175.7538	26.8400 
569.170	0.0361	-0.0396	0.8252	-0.1593	4.3671	-175.9680	26.8500 
569.187	0.0327	-0.0049	0.8862	-0.2911	4.5593	-176.1273	26.8400 
569.237	0.0864	-0.0176	0.9194	-0.3571	4.6857	-176.2262	26.8200 
569.240	0.1069	-0.0220	0.9360	-0.4779	4.7681	-176.3910	26.8300 
569.247	0.1299	-0.0278	0.9697	-0.7031	4.8175	-176.5448	26.8300 
569.267	0.1309	0.0293	1.0024	-0.9009	4.8230	-176.7316	26.8400 
569.288	0.0825	0.0386	1.0088	-0.9338	4.8010	-176.8854	26.8500 
569.307	0.0425	0.0537	1.0059	-0.8899	4.7900	-176.9733	26.8400 
569.326	0.0107	0.1069	0.9980	-0.7416	4.8010	-177.0227	26.8300 
569.346	-0.0132	0.0986	0.9907	-0.5658	4.8615	-177.0392	26.8400 
569.367	0.0122	0.1055	0.9966	-0.4395	4.9658	-176.9952	26.8300 
569.386	0.0474	0.1157	1.0229	-0.2582	5.0977	-176.9623	26.8500 
569.432	0.0552	0.1416	1.0435	-0.1099	5.2295	-176.9293	26.8400 
569.434	0.0391	0.1719	1.0469	0.0110	5.3394	-176.8414	26.8400 
569.446	0.0376	0.1665	1.0317	0.2527	5.4272	-176.7316	26.8300 
569.466	0.0688	0.1206	1.0000	0.4834	5.5096	-176.6382	26.8500 
569.486	0.0771	0.1069	0.9946	0.5988	5.6305	-176.6327	26.8400 
569.506	0.0503	0.1343	1.0024	0.6152	5.8118	-176.6711	26.8400 
569.526	0.0132	0.1748	1.0127	0.6152	6.0590	-176.6711	26.8500 
569.546	-0.0400	0.2388	1.0244	0.6592	6.3831	-176.4954	26.8400 
569.565	-0.0581	0.2275	1.0283	0.7526	6.7511	-176.1383	26.8500 
569.619	-0.0889	0.1377	1.1973	0.8954	7.0862	-175.6384	26.8400 
569.622	-0.0708	0.1069	1.2832	1.1481	7.3938	-175.0836	26.8300 
569.625	-0.0444	-0.0898	1.2793	1.3843	7.7399	-174.7101	26.8200 
569.645	-0.0903	-0.0972	1.1909	1.4502	8.1793	-174.5563	26.8200 
569.665	-0.2451	-0.2393	1.0293	1.0272	8.7122	-174.5178	26.8300 
569.685	-0.2349	-0.2393	1.0249	0.1428	9.2230	-174.5782	26.8200 
569.704	-0.2544	-0.1855	1.1895	-0.9009	9.6021	-174.6002	26.8200 
569.725	-0.2344	-0.1167	1.3022	-1.7084	9.7833	-174.4904	26.8300 
569.744	-0.2075	-0.0474	1.2139	-2.0380	9.7723	-174.2432	26.8200 
569.764	-0.2402	-0.0596	1.0850	-2.2577	9.7504	-173.9685	26.8300 
569.821	-0.2026	-0.0771	0.9346	-2.3621	9.7449	-173.6609	26.8400 
569.827	-0.1704	-0.0884	0.8701	-2.3621	9.7504	-173.4082	26.8200 
569.831	-0.1548	-0.1138	0.8423	-2.4390	9.7504	-173.2489	26.8100 
569.844	-0.1274	-0.0825	0.8545	-2.4884	9.7064	-173.1610	26.8100 
569.864	-0.1250	-0.0547	0.8735	-2.4060	9.5911	-173.1500	26.8200 
569.884	-0.1660	-0.0576	0.8662	-2.3401	9.4482	-173.1390	26.8000 
569.904	-0.1880	-0.0591	0.8677	-2.2357	9.3054	-173.0457	26.8100 
569.924	-0.1875	-0.0415	0.8921	-2.2192	9.1846	-172.9413	26.8000 
569.944	-0.1758	-0.0200	0.9316	-2.1643	9.0912	-172.8204	26.8000 
569.964	-0.1602	-0.0112	0.9731	-2.1259	8.9758	-172.7271	26.8000 
569.984	-0.1753	0.0308	1.0020	-2.1094	8.8385	-172.6501	26.8000 
570.003	-0.1865	0.0435	0.9976	-1.9666	8.6737	-172.5403	26.8100 
570.023	-0.1816	0.0708	0.9683	-1.6315	8.4924	-172.3480	26.7900 
570.063	-0.1616	0.0972	0.9395	-1.3239	8.3167	-172.0898	26.7900 
570.065	-0.1479	0.0952	0.9282	-1.0876	8.1464	-171.8207	26.8000 
570.083	-0.1577	0.0938	0.9424	-0.8844	7.9486	-171.5076	26.7900 
570.103	-0.1797	0.1045	0.9517	-0.7196	7.7344	-171.0901	26.8000 
570.123	-0.1685	0.1274	0.9683	-0.5493	7.5201	-170.6067	26.7900 
570.143	-0.1338	0.1221	0.9668	-0.3351	7.3004	-170.1343	26.8100 
570.162	-0.1265	0.1221	0.9688	-0.1044	7.0532	-169.6838	26.7900 
570.185	-0.1245	0.1099	0.9829	0.1099	6.8115	-169.2279	26.8000 
570.203	-0.1260	0.1274	1.0249	0.4065	6.5753	-168.7390	26.8000 
570.255	-0.1523	0.1914	1.0532	0.5768	6.3281	-168.1897	26.8000 
570.258	-0.1445	0.2207	1.0664	0.5658	6.0425	-167.5415	26.8100 
570.262	-0.1064	0.2144	1.0537	0.6921	5.7294	-166.9043	26.7900 
570.282	-0.0718	0.2056	1.0205	0.9998	5.3778	-166.3165	26.8100 
570.302	-0.0659	0.1982	1.0254	1.2469	4.9713	-165.7672	26.8100 
570.322	-0.0386	0.1724	1.1479	1.3184	4.5154	-165.3058	26.8100 
570.342	0.0015	0.1655	1.3696	1.5106	4.0045	-165.0092	26.8100 
570.362	-0.0342	0.1255	1.3906	1.9611	3.5101	-164.7729	26.8000 
570.381	-0.0171	-0.0522	1.2314	2.3566	3.0597	-164.4598	26.8100 
570.401	0.0435	-0.1997	1.1758	2.3016	2.6807	-164.1193	26.8100 
570.447	0.1299	-0.1821	1.1782	1.4886	2.3950	-163.8611	26.8100 
570.450	0.1353	-0.1880	1.1318	0.5328	2.1643	-163.6359	26.8200 
570.461	0.0820	-0.2432	1.0767	-0.1923	2.0105	-163.3447	26.8100 
570.481	0.0229	-0.2026	1.0742	-0.8624	1.9391	-163.0756	26.8200 
570.501	-0.0225	-0.1050	1.0874	-1.1920	2.0544	-162.8503	26.8100 
570.521	-0.0278	-0.0596	1.0122	-1.4337	2.2906	-162.5812	26.8200 
570.541	0.0156	-0.0835	0.8613	-1.6644	2.5873	-162.2571	26.8100 
570.561	0.0532	-0.1016	0.8208	-1.9446	2.8510	-161.9275	26.8100 
570.581	0.0645	-0.1421	0.8574	-2.3895	3.0322	-161.5924	26.8200 
570.634	0.0581	-0.1372	0.8979	-2.8949	3.1805	-161.2738	26.8200 
570.636	0.0835	-0.1318	0.9233	-3.3069	3.3179	-160.9717	26.7900 
570.641	0.1748	-0.1572	0.9692	-3.6255	3.4332	-160.7849	26.8000 
570.661	0.2026	-0.1157	1.0005	-3.8507	3.5156	-160.7849	26.8100 
570.680	0.1587	-0.0859	1.0029	-3.9441	3.5321	-160.8179	26.8200 
570.700	0.1079	-0.0566	0.9990	-3.9001	3.5321	-160.8618	26.8100 
570.720	0.0356	-0.0493	0.9863	-3.8617	3.5541	-160.8783	26.8100 
570.740	0.0283	-0.0015	0.9902	-3.7079	3.5925	-160.8398	26.8100 
570.761	0.0620	-0.0293	0.9722	-3.4222	3.6145	-160.8398	26.8100 
570.780	0.0903	-0.0283	0.9629	-3.0597	3.6310	-160.8893	26.8100 
570.824	0.1187	0.0215	0.9824	-2.7136	3.6530	-160.9991	26.8000 
570.835	0.1255	0.0405	0.9927	-2.4005	3.6584	-161.1530	26.8100 
570.840	0.0898	0.0337	0.9604	-2.1313	3.6859	-161.2903	26.8000 
570.860	0.0630	0.0713	1.0176	-1.7029	3.7683	-161.3397	26.8100 
570.880	0.0474	-0.0122	0.9736	-1.3458	3.8727	-161.4001	26.8100 
570.900	0.0879	0.0508	0.9946	-1.1041	3.9990	-161.5375	26.8200 
570.919	0.0889	0.0254	1.0142	-0.9833	4.1473	-161.7133	26.8200 
570.939	0.0708	0.0742	1.0532	-0.9888	4.3451	-161.9055	26.8100 
570.959	0.0278	0.1138	1.0991	-1.0767	4.5978	-162.0319	26.8100 
570.979	-0.0132	0.1206	1.1133	-1.1261	4.8889	-161.9989	26.8100 
570.999	0.0078	0.1528	1.0630	-0.9943	5.1746	-161.8176	26.8100 
571.019	0.0205	0.1660	1.0288	-0.6976	5.4218	-161.5814	26.8300 
571.064	0.0503	0.1567	0.9810	-0.3955	5.5975	-161.2683	26.8200 
571.067	0.0659	0.1484	0.9492	-0.2087	5.7458	-160.9222	26.8100 
571.078	0.0498	0.0806	1.0342	-0.0220	5.8447	-160.5377	26.8100 
571.099	-0.0171	-0.0190	1.1592	0.0220	5.9271	-160.0598	26.8200 
571.118	-0.0713	-0.0742	1.2979	0.0659	6.0205	-159.5874	26.8200 
571.138	-0.0767	-0.1182	1.2988	0.0330	6.1359	-159.2743	26.8200 
571.158	-0.1709	-0.1318	1.1812	-0.2417	6.3007	-159.0381	26.8200 
571.178	-0.2378	-0.1436	1.0649	-0.8405	6.5094	-158.7964	26.8100 
571.200	-0.2729	-0.1509	1.0415	-1.6919	6.7566	-158.4119	26.8200 
571.263	-0.2627	-0.1143	1.1006	-2.4554	6.9434	-157.8461	26.8000 
571.265	-0.1772	-0.0679	1.1211	-2.6917	6.9818	-157.0660	26.8100 
571.265	-0.1313	-0.0786	1.0693	-2.5928	6.9543	-156.2640	26.8100 
571.278	-0.1089	-0.0649	0.9492	-2.4280	6.9269	-155.5829	26.7900 
571.298	-0.1245	-0.0562	0.8794	-2.2632	6.9434	-154.9347	26.8100 
571.317	-0.1392	-0.0508	0.8560	-2.1753	6.9928	-154.2535	26.8100 
571.337	-0.1455	-0.1064	0.8843	-2.1973	7.0477	-153.6108	26.8100 
571.357	-0.1753	-0.0894	0.9551	-2.2137	7.0807	-152.9846	26.8100 
571.377	-0.1943	-0.0640	0.9746	-2.3511	7.0917	-152.2925	26.8100 
571.399	-0.2310	-0.0562	0.9829	-2.6257	7.0972	-151.5399	26.8200 
571.460	-0.2427	-0.0552	0.9829	-2.9169	7.1631	-150.7599	26.8000 
571.462	-0.2207	-0.0308	0.9854	-3.0652	7.2565	-149.8755	26.8100 
571.462	-0.2051	-0.0269	0.9858	-3.2190	7.3114	-148.8373	26.8100 
571.477	-0.1855	0.0083	0.9971	-3.2465	7.3114	-147.6453	26.8000 
571.497	-0.1787	0.0190	0.9897	-3.0322	7.2455	-146.2830	26.8000 
571.517	-0.1924	0.0234	0.9854	-2.7081	7.1136	-144.7614	26.8000 
571.537	-0.1968	0.0244	0.9863	-2.3950	6.9324	-143.1079	26.8000 
571.557	-0.1538	0.0322	0.9819	-2.0764	6.7456	-141.3556	26.8100 
571.576	-0.1294	0.0396	0.9756	-1.5765	6.5094	-139.5319	26.8000 
571.596	-0.1313	0.0200	0.9604	-1.1041	6.2457	-137.6697	26.8000 
571.653	-0.1206	0.0371	0.9707	-0.7416	5.9711	-135.8350	26.8000 
571.656	-0.1108	0.0532	0.9883	-0.3625	5.7019	-134.0277	26.8100 
571.656	-0.0874	0.0664	0.9888	0.0714	5.4437	-132.3193	26.7900 
571.676	-0.0513	0.1001	1.0273	0.4449	5.1746	-130.6659	26.8000 
571.696	-0.0332	0.1035	1.0464	0.7526	4.8505	-129.0015	26.8000 
571.716	-0.0649	0.1357	1.0767	1.1041	4.4659	-127.3810	26.8100 
571.736	-0.0835	0.1479	1.0771	1.3953	4.0924	-125.7935	26.8000 
571.755	-0.0752	0.1558	1.0776	1.7249	3.8013	-124.1620	26.8000 
571.775	-0.0474	0.1548	1.0767	2.1039	3.5376	-122.5580	26.8100 
571.795	0.0015	0.1196	1.1260	2.4994	3.2520	-121.0419	26.8100 
571.839	0.0098	0.1133	1.1689	2.8125	2.9333	-119.6301	26.8100 
571.845	-0.0205	0.0981	1.2021	3.0927	2.6312	-118.2458	26.8100 
571.855	-0.0454	0.0586	1.1689	3.2959	2.3895	-116.8451	26.8100 
571.875	-0.0459	0.0513	1.0464	3.2025	2.2522	-115.4224	26.8200 
571.895	-0.0376	0.0396	0.9248	3.0652	2.2192	-114.0546	26.8100 
571.915	-0.0034	-0.0659	0.8301	2.9443	2.2577	-112.8900	26.8100 
571.935	0.0923	-0.1875	0.9189	2.7521	2.3071	-111.9727	26.7900 
571.955	0.1050	-0.1860	1.0781	2.3676	2.3456	-111.1926	26.8100 
571.975	0.0625	-0.1079	1.2534	2.0435	2.4060	-110.4181	26.8100 
571.994	0.0566	-0.0767	1.2646	1.8182	2.5104	-109.5502	26.8100 
572.017	0.0527	-0.0151	1.1509	1.7303	2.6587	-108.6218	26.8200 
572.035	0.0190	-0.0073	1.0483	1.6699	2.8839	-107.7100	26.8200 
572.084	-0.0132	-0.0107	0.9644	1.5710	3.1531	-106.8640	26.8100 
572.086	-0.0083	0.0088	0.9370	1.4667	3.4497	-106.0291	26.8100 
572.094	0.0156	0.0171	0.8994	1.4612	3.7354	-105.1447	26.8100 
572.115	0.0361	-0.0029	0.8950	1.4557	3.9551	-104.2053	26.8200 
572.134	0.0508	0.0083	0.9160	1.4227	4.1144	-103.2385	26.8300 
572.154	0.0581	0.0083	0.9312	1.4502	4.2517	-102.2717	26.8300 
572.174	0.0728	0.0034	0.9595	1.5161	4.3561	-101.3818	26.8200 
572.193	0.0581	0.0190	0.9839	1.6260	4.4220	-100.5304	26.8200 
572.218	0.0405	0.0586	1.0117	1.9006	4.4659	-99.7009	26.8300 
572.233	0.0449	0.0767	1.0020	2.2852	4.5044	-98.9264	26.8300 
572.276	0.0483	0.0776	0.9736	2.5873	4.5374	-98.2123	26.8100 
572.278	0.0415	0.0879	0.9585	2.7686	4.5813	-97.5037	26.8100 
572.292	0.0181	0.1118	0.9756	2.7905	4.6637	-96.7786	26.8200 
572.313	0.0088	0.1138	0.9961	2.8949	4.7845	-96.0645	26.8200 
572.337	-0.0127	0.0894	1.0322	3.1421	4.9054	-95.3833	26.8400 
572.353	0.0117	0.0835	1.0786	3.3838	5.0317	-94.6912	26.8200 
572.373	0.0928	0.0840	1.0669	3.4607	5.1581	-94.0924	26.8400 
572.392	0.1499	0.0557	1.0513	3.5760	5.2515	-93.6420	26.8500 
572.412	0.1084	0.0928	1.0737	3.5651	5.3284	-93.3453	26.8400 
572.463	0.0449	0.1958	1.1118	3.6255	5.4163	-92.8839	26.8300 
572.465	-0.0620	0.1792	1.1895	3.8013	5.5426	-92.3401	26.8200 
572.472	-0.1006	0.1626	1.2280	4.0045	5.7019	-91.7688	26.8300 
572.492	-0.0762	0.0552	1.2197	4.3561	5.9271	-91.2909	26.8300 
572.512	-0.0591	-0.0239	1.2485	4.5703	6.1688	-90.9943	26.8400 
572.532	-0.1338	-0.0439	1.1279	4.5319	6.4380	-90.7965	26.8300 
572.552	-0.1665	-0.0854	1.0020	4.3396	6.7072	-90.6207	26.8400 
572.572	-0.2036	-0.1094	0.9233	3.7738	6.9214	-90.3296	26.8200 
572.592	-0.2280	-0.1104	0.9883	3.2080	7.0093	-89.7748	26.8400 
572.611	-0.2129	-0.1084	1.1221	2.8345	6.9763	-88.9838	26.8300 
572.631	-0.1787	-0.0869	1.1440	2.4939	6.9104	-88.1818	26.8300 
572.652	-0.1113	-0.0576	1.0737	2.1039	6.8390	-87.4622	26.8400 
572.710	-0.0674	-0.0474	0.9990	1.8018	6.7291	-86.8085	26.8400 
572.713	-0.0620	-0.0195	0.9048	1.7468	6.5973	-86.1493	26.8400 
572.713	-0.0698	0.0054	0.8770	1.9061	6.4380	-85.4572	26.8400 
572.731	-0.0991	0.0068	0.8457	2.1423	6.2622	-84.7705	26.8400 
572.751	-0.1382	0.0366	0.8574	2.5928	6.1194	-84.1388	26.8300 
572.771	-0.1416	0.0352	0.8882	2.9443	6.0260	-83.5071	26.8400 
572.791	-0.1216	0.0439	0.8994	3.1805	5.9821	-82.9028	26.8200 
572.811	-0.0796	0.0264	0.9219	3.0927	5.9326	-82.3425	26.8100 
572.834	-0.0479	0.0625	0.9414	2.9553	5.8392	-81.7657	26.8200 
572.851	-0.0796	0.0566	0.9717	3.0432	5.7184	-81.2549	26.8100 
572.907	-0.1094	0.0605	0.9629	3.1860	5.6140	-80.7880	26.8100 
572.909	-0.0908	0.1157	0.9741	3.3453	5.5316	-80.3540	26.8000 
572.911	-0.0864	0.1274	0.9497	3.6310	5.4657	-79.9530	26.8100 
572.930	-0.0796	0.1445	0.9688	3.7848	5.4053	-79.5520	26.8000 
572.949	-0.0801	0.1543	0.9946	3.8342	5.3174	-79.1455	26.8000 
572.970	-0.0801	0.1567	1.0278	3.8452	5.1746	-78.7830	26.7900 
572.990	-0.0806	0.1792	1.0713	3.8452	5.0208	-78.4698	26.8100 
573.009	-0.1157	0.1606	1.0996	3.8947	4.8724	-78.2062	26.7900 
573.029	-0.1299	0.1470	1.1118	4.0100	4.7571	-77.9205	26.7900 
573.049	-0.1250	0.1021	1.1084	4.1089	4.6692	-77.5800	26.8000 
573.091	-0.0601	0.1509	1.1899	4.0869	4.5813	-77.1625	26.7900 
573.095	0.0283	0.1211	1.3486	4.2023	4.4275	-76.7615	26.8000 
573.109	0.0366	0.1436	1.3662	4.2957	4.1803	-76.3879	26.8100 
573.129	-0.0332	0.0200	1.2798	4.4110	3.9276	-76.0693	26.8000 
573.149	-0.0645	-0.0005	1.1450	4.4110	3.7683	-75.8112	26.7900 
573.169	-0.0063	-0.1133	0.9580	4.2188	3.8177	-75.6464	26.8000 
573.189	0.0488	-0.1479	0.8423	3.6749	3.9880	-75.6958	26.8000 
573.209	0.1274	-0.1548	0.8735	3.0927	4.2023	-75.9595	26.7900 
573.231	0.1396	-0.2188	1.0146	2.6038	4.3726	-76.3715	26.8100 
573.291	0.0454	-0.1650	1.1216	2.1753	4.5483	-76.7340	26.7900 
573.294	-0.0273	-0.0625	1.1689	1.8347	4.7791	-76.9482	26.8000 
573.294	-0.0063	-0.0386	1.0845	1.6205	5.0153	-77.0197	26.7900 
573.309	0.0278	-0.0166	0.9590	1.4282	5.2954	-77.0801	26.8200 
573.328	0.0435	-0.0112	0.8965	1.1646	5.5756	-77.1844	26.8000 
573.348	0.0210	-0.0342	0.8447	1.1206	5.8447	-77.2943	26.8000 
573.368	0.0068	-0.0317	0.8481	1.1261	6.1084	-77.4152	26.7900 
573.388	0.0049	-0.0264	0.8853	1.1206	6.3281	-77.4646	26.7900 
573.408	0.0146	-0.0361	0.9121	1.1591	6.5369	-77.4371	26.7800 
573.428	0.0586	-0.0269	0.9731	1.0547	6.7236	-77.3547	26.8100 
573.478	0.0864	-0.0039	0.9727	0.9338	6.8445	-77.2394	26.8000 
573.481	0.0562	0.0303	0.9707	0.9119	6.9434	-77.0471	26.7900 
573.487	0.0156	0.0425	0.9614	0.9174	7.0532	-76.8768	26.7900 
573.508	-0.0103	0.0620	0.9634	1.1481	7.2070	-76.6846	26.8100 
573.527	0.0029	0.0518	0.9893	1.4172	7.3553	-76.4703	26.8000 
573.547	0.0039	0.0840	1.0151	1.5930	7.4652	-76.2012	26.7900 
573.567	-0.0039	0.1021	1.0410	1.6699	7.5806	-75.8881	26.8100 
573.587	-0.0234	0.1523	1.0796	1.7523	7.7234	-75.4761	26.8100 
573.607	-0.0137	0.1084	1.0781	1.8842	7.8882	-75.0531	26.8000 
573.627	0.0444	0.0688	1.0366	2.1094	8.0530	-74.7455	26.8000 
573.647	0.0601	0.0386	1.0161	2.2742	8.2507	-74.5972	26.8100 
573.667	-0.0366	0.1099	1.0366	2.2412	8.4705	-74.5313	26.8100 
573.730	-0.1533	0.1812	1.1060	2.1039	8.7726	-74.3555	26.8100 
573.733	-0.2134	0.0688	1.2666	2.0105	9.1296	-74.0753	26.8000 
573.733	-0.1543	0.0288	1.3130	2.0490	9.4867	-73.7567	26.8100 
573.746	-0.0898	-0.0674	1.1846	1.8292	9.7339	-73.4985	26.8100 
573.766	-0.0806	-0.1357	1.0249	0.9998	9.8383	-73.4161	26.8100 
573.786	-0.1733	-0.2520	0.9097	0.0000	9.7833	-73.5425	26.8100 
573.806	-0.2539	-0.2480	1.0557	-0.6592	9.6075	-73.4821	26.8100 
573.826	-0.2192	-0.1753	1.3740	-0.8020	9.3164	-73.0481	26.8100 
573.847	-0.1030	-0.1914	1.3574	-0.6317	8.9813	-72.5482	26.8100 
573.865	-0.0200	-0.0864	1.1846	-0.3845	8.6078	-72.1527	26.8300 
573.885	-0.0376	-0.0420	1.0615	-0.2802	8.1848	-71.8121	26.8100 
573.937	-0.0854	-0.0132	0.9512	-0.3680	7.7673	-71.4331	26.8100 
573.940	-0.0903	0.0112	0.8779	-0.0494	7.4048	-71.0211	26.8300 
573.946	-0.1050	-0.0283	0.7520	0.4175	7.0972	-70.7025	26.8200 
573.965	-0.1138	-0.0151	0.7583	0.9723	6.8939	-70.4828	26.8100 
573.985	-0.0957	-0.0107	0.7930	1.3678	6.7346	-70.2301	26.8100 
574.005	-0.0674	0.0229	0.8140	1.7468	6.5808	-70.0323	26.8100 
574.025	-0.0698	0.0332	0.8765	2.0599	6.4655	-69.8346	26.8100 
574.075	-0.0576	0.0073	0.8984	2.1094	6.3116	-69.5874	26.8200 
574.078	-0.0732	0.1152	0.9692	1.8951	6.1688	-69.4006	26.8300 
574.085	-0.0894	0.0913	0.9888	2.1808	6.0480	-69.1644	26.8100 
574.105	-0.0996	0.0859	0.9683	2.4719	5.8832	-68.9667	26.8200 
574.125	-0.0972	0.1289	0.9810	3.0212	5.7843	-68.6920	26.8100 
574.145	-0.0728	0.1396	0.9751	3.4387	5.6964	-68.3679	26.8100 
574.165	-0.0449	0.1436	0.9888	3.8232	5.5865	-68.0548	26.8100 
574.184	-0.0342	0.1431	1.0498	4.2242	5.3998	-67.7856	26.8100 
574.204	-0.0791	0.1655	1.0933	4.4604	5.1801	-67.5879	26.8100 
574.224	-0.1270	0.1655	1.1196	4.6472	5.0098	-67.3627	26.8200 
574.245	-0.1055	0.1807	1.0996	4.7571	4.8669	-67.0551	26.8300 
574.264	-0.0518	0.2148	1.0879	4.9603	4.7791	-66.7255	26.8300 
574.323	-0.0054	0.2241	1.1099	5.1526	4.6692	-66.4178	26.8100 
574.326	0.0845	0.1387	1.2446	5.4437	4.4769	-66.3025	26.8100 
574.326	0.0464	0.1885	1.1729	5.9326	4.2407	-66.2970	26.8200 
574.344	-0.0156	-0.0313	1.0591	6.4435	4.0540	-66.5771	26.8100 
574.363	0.0420	-0.0625	1.0488	6.7126	3.9276	-66.9397	26.8200 
574.383	0.1328	-0.1152	1.0430	6.4764	3.8672	-67.4506	26.8200 
574.403	0.1729	-0.1743	1.0732	6.0315	3.8617	-68.0878	26.8100 
574.423	0.1304	-0.1855	1.2031	5.6580	3.9551	-68.8733	26.8100 
574.443	-0.0005	-0.0723	1.2661	5.1416	4.0869	-69.5435	26.8200 
574.463	-0.0889	0.0659	1.2783	4.5758	4.3286	-70.0104	26.8200 
574.517	-0.0508	0.1123	1.1177	4.3231	4.6912	-70.4279	26.8200 
574.519	-0.0249	0.0723	0.9697	4.2847	5.1251	-70.8453	26.8200 
574.523	0.0098	0.0249	0.7905	4.2407	5.5151	-71.2408	26.8100 
574.542	0.0244	0.0098	0.7383	4.2517	5.8337	-71.6199	26.8100 
574.563	0.0317	0.0078	0.7876	4.2297	6.1194	-71.9879	26.8200 
574.582	0.0405	0.0083	0.8315	4.2188	6.3885	-72.2900	26.8200 
574.603	0.0654	0.0049	0.8921	4.1089	6.6467	-72.6086	26.8100 
574.622	0.0835	0.0420	0.9253	3.8947	6.8500	-72.8558	26.8300 
574.642	0.0708	0.0654	0.9468	3.7408	6.9983	-73.0426	26.8200 
574.662	0.0591	0.0649	0.9668	3.7408	7.1027	-73.1909	26.8200 
574.704	0.0435	0.1011	1.0059	3.8177	7.2070	-73.3008	26.8300 
574.707	0.0278	0.1147	1.0229	3.9386	7.3334	-73.4271	26.8200 
574.722	0.0142	0.1445	1.0264	4.0375	7.4762	-73.5919	26.8200 
574.742	0.0083	0.1641	1.0278	4.0704	7.6300	-73.6688	26.8100 
574.762	-0.0073	0.1748	1.0317	4.0979	7.8223	-73.7018	26.8100 
574.782	-0.0156	0.1899	1.0425	4.1913	8.0365	-73.6743	26.8200 
574.802	-0.0034	0.1636	1.0522	4.2682	8.2672	-73.6578	26.8300 
574.821	0.0483	0.1318	1.0117	4.3231	8.4869	-73.7238	26.8200 
574.842	0.0610	0.0854	0.9780	4.3011	8.7067	-74.0259	26.8300 
574.893	-0.0137	0.1567	1.0259	4.2847	8.9374	-74.3225	26.8200 
574.897	-0.1699	0.1514	1.2334	4.2902	9.2120	-74.4983	26.8100 
574.901	-0.2471	0.1377	1.2788	4.2847	9.5251	-74.5972	26.8200 
574.921	-0.2212	-0.0190	1.2695	4.4110	9.9207	-74.7400	26.8200 
574.941	-0.1470	-0.0415	1.1816	4.2792	10.3436	-75.0421	26.8300 
574.961	-0.1660	-0.1396	0.9790	3.6035	10.7721	-75.6519	26.8100 
574.981	-0.2109	-0.1978	0.9287	2.6642	11.0687	-76.2891	26.8100 
575.001	-0.2632	-0.0679	1.1626	1.7413	11.0468	-76.5088	26.8200 
575.021	-0.2490	-0.0386	1.2876	1.2689	10.8655	-76.4868	26.8200 
575.041	-0.1479	-0.0610	1.2368	1.2250	10.6238	-76.4758	26.8000 
575.061	-0.1069	-0.0083	1.1191	1.3568	10.3217	-76.4923	26.8000 
575.080	-0.0830	-0.0415	0.9517	1.0492	9.9536	-76.5582	26.8000 
575.130	-0.0708	-0.0205	0.9053	0.8514	9.5416	-76.5308	26.8200 
575.132	-0.1445	-0.0122	0.8354	0.7745	9.1461	-76.5417	26.8000 
575.140	-0.1572	0.0063	0.8354	0.8844	8.7946	-76.5363	26.8100 
575.160	-0.1514	0.0229	0.8594	1.0437	8.4540	-76.5527	26.8000 
575.180	-0.1309	0.0298	0.8540	1.3184	8.1354	-76.6461	26.8000 
575.200	-0.1016	0.0137	0.8564	1.6974	7.8497	-76.7834	26.7900 
575.220	-0.0981	0.0239	0.8813	1.9226	7.6025	-76.8988	26.7700 
575.240	-0.1128	0.0234	0.9272	1.7633	7.3993	-77.0746	26.7800 
575.259	-0.1089	0.0723	0.9492	1.6370	7.2070	-77.2284	26.7700 
575.279	-0.1147	0.1025	0.9697	1.8127	7.0148	-77.3602	26.7800 
575.317	-0.1226	0.1006	0.9780	1.9611	6.8280	-77.4811	26.8000 
575.319	-0.1172	0.1577	0.9951	2.2961	6.6632	-77.5580	26.7900 
575.339	-0.1201	0.1421	0.9795	2.6862	6.5259	-77.6239	26.7800 
575.359	-0.0801	0.1504	0.9780	3.0157	6.3776	-77.7008	26.7800 
575.379	-0.0811	0.1426	1.0103	3.3179	6.2018	-77.8656	26.7800 
575.399	-0.1069	0.1436	1.0347	3.5211	6.0535	-78.1018	26.7700 
575.419	-0.1416	0.1177	1.0371	3.6255	5.9601	-78.3325	26.7800 
575.439	-0.1348	0.1470	1.0493	3.6639	5.9052	-78.5687	26.7800 
575.461	-0.0996	0.1880	1.0474	3.7518	5.8282	-78.7830	26.7900 
575.509	-0.0278	0.1997	1.1089	4.0045	5.6799	-79.0027	26.7700 
575.511	0.0098	0.1499	1.2280	4.3286	5.4492	-79.3268	26.7800 
575.518	-0.0015	0.1650	1.2505	4.7845	5.1801	-79.7443	26.7600 
575.538	-0.0083	0.0483	1.2197	5.2020	4.9548	-80.2496	26.7600 
575.558	0.0166	0.0117	1.1670	5.2679	4.8065	-80.8044	26.7800 
575.578	0.0630	-0.0044	1.0879	4.9164	4.7461	-81.4307	26.7800 
575.598	0.1162	-0.1592	0.9468	4.2023	4.8175	-82.2876	26.7900 
575.618	0.1240	-0.1646	1.0015	3.4442	4.9768	-83.4467	26.8000 
575.638	0.0396	-0.0508	1.2070	2.8290	5.1361	-84.6387	26.7800 
575.658	-0.0415	-0.0059	1.2354	2.2906	5.3064	-85.6439	26.7900 
575.697	-0.0840	0.0298	1.1431	1.9995	5.4987	-86.3086	26.7800 
575.701	-0.0820	0.0137	1.0269	1.8622	5.7404	-86.8030	26.7800 
575.717	-0.0430	0.0073	0.9067	1.6754	6.0150	-87.2864	26.7900 
575.737	0.0464	-0.0234	0.7896	1.3348	6.2073	-87.8357	26.7800 
575.757	0.0415	-0.0132	0.8135	0.9613	6.3171	-88.3630	26.7600 
575.777	0.0215	-0.0640	0.8774	0.4010	6.3611	-88.7860	26.7500 
575.797	0.0200	-0.0269	0.9238	0.2307	6.4050	-89.1046	26.7800 
575.817	0.0703	-0.0264	0.9824	0.2582	6.4435	-89.4507	26.7700 
575.836	0.0981	-0.0552	0.9727	-0.0549	6.4435	-89.8846	26.7600 
575.857	0.0776	0.0283	0.9922	-0.3351	6.4270	-90.1318	26.7700 
575.877	0.0581	0.0903	0.9922	-0.1703	6.4105	-90.3351	26.7700 
575.897	0.0146	0.0122	0.9575	0.0879	6.4380	-90.5823	26.7500 
575.935	-0.0034	0.0254	0.9497	-0.0769	6.4929	-90.7196	26.7400 
575.938	-0.0122	0.1050	1.0146	-0.0879	6.6083	-90.7141	26.7400 
575.957	-0.0200	0.0854	1.0000	0.0055	6.7346	-90.6427	26.7500 
575.976	0.0186	0.1460	1.0127	0.0714	6.8280	-90.4010	26.7600 
575.999	0.0137	0.1265	1.0176	0.3955	6.9049	-90.1099	26.7400 
576.016	0.0103	0.0903	1.0308	0.5438	6.9873	-89.7968	26.7400 
576.036	0.0205	0.1035	1.0410	0.6921	7.0587	-89.4507	26.7500 
576.056	0.0479	0.1099	1.0381	0.8844	7.1301	-89.1376	26.7300 
576.076	0.0459	0.0913	1.0259	1.0657	7.2125	-88.9124	26.7500 
576.133	0.0137	0.1147	1.0259	1.0217	7.3114	-88.7366	26.7500 
576.135	-0.0156	0.1455	1.0439	0.9613	7.4542	-88.4894	26.7400 
576.135	-0.0557	0.1924	1.0566	0.9558	7.6520	-88.1488	26.7300 
576.155	-0.0596	0.1812	1.0811	1.0162	7.8662	-87.7588	26.7300 
576.176	-0.0781	0.1211	1.1899	1.1810	8.0475	-87.2809	26.7200 
576.195	-0.0811	0.0542	1.2422	1.3898	8.1958	-86.8085	26.7300 
576.215	-0.0552	-0.0493	1.2544	1.5546	8.3551	-86.4624	26.7300 
576.235	-0.0669	-0.0625	1.1934	1.5106	8.5968	-86.3251	26.7200 
576.255	-0.1191	-0.0771	1.1465	1.0547	8.9703	-86.4569	26.7300 
576.276	-0.1372	-0.0693	1.0684	0.2911	9.3384	-86.6876	26.7300 
576.323	-0.2256	-0.1260	0.9058	-0.4614	9.6844	-86.9019	26.7300 
576.325	-0.2305	-0.1924	0.9053	-1.2634	9.9701	-87.0612	26.7600 
576.335	-0.1631	-0.2095	1.0151	-2.0380	10.1349	-87.1051	26.7300 
576.355	-0.1489	-0.1748	1.0864	-2.6422	10.2283	-87.1161	26.7000 
576.374	-0.1553	-0.1270	1.0776	-3.1586	10.2448	-87.1381	26.7200 
576.394	-0.1738	-0.1489	1.0322	-3.6145	10.2118	-87.1985	26.7300 
576.414	-0.1450	-0.1235	0.9727	-3.8013	10.1459	-87.2314	26.7200 
576.434	-0.1377	-0.1177	0.9497	-3.8068	10.0800	-87.3413	26.7200 
576.454	-0.1587	-0.1362	0.9263	-3.7299	10.0525	-87.5775	26.7000 
576.476	-0.1948	-0.1484	0.9287	-3.7793	10.0690	-87.8302	26.7100 
576.515	-0.2109	-0.0811	0.9595	-4.0210	10.1349	-88.0280	26.7000 
576.519	-0.2026	-0.0801	0.9556	-4.3231	10.2173	-88.1927	26.7200 
576.533	-0.1978	-0.0942	0.9590	-4.6857	10.2887	-88.3356	26.7000 
576.553	-0.2109	-0.0884	0.9746	-4.9548	10.3271	-88.4290	26.7200 
576.573	-0.2119	-0.0952	0.9819	-5.0317	10.3162	-88.3960	26.7100 
576.593	-0.1826	-0.0806	0.9854	-5.0208	10.2667	-88.3081	26.7000 
576.614	-0.1489	-0.0591	0.9946	-4.9768	10.1898	-88.2477	26.7100 
576.633	-0.1646	-0.0649	0.9971	-4.9658	10.0800	-88.2147	26.7100 
576.653	-0.1846	-0.0532	1.0127	-4.8834	9.9426	-88.1488	26.7100 
576.673	-0.1870	-0.0430	1.0068	-4.8230	9.7888	-87.9895	26.7200 
576.693	-0.1533	-0.0283	1.0078	-4.7791	9.6075	-87.7478	26.7100 
576.713	-0.1436	-0.0513	1.0039	-4.7955	9.3768	-87.4896	26.7000 
576.752	-0.1475	-0.0469	1.0029	-4.8669	9.1241	-87.2369	26.7000 
576.755	-0.1406	-0.0366	0.9985	-4.8724	8.8715	-86.9128	26.7100 
576.772	-0.1650	-0.0483	0.9966	-4.8175	8.6188	-86.4899	26.7100 
576.792	-0.1636	-0.0049	0.9995	-4.6033	8.3661	-85.9351	26.7000 
576.812	-0.1729	-0.0210	1.0068	-4.3231	8.1354	-85.2045	26.7000 
576.838	-0.1748	-0.0142	0.9966	-4.2188	7.8992	-84.4025	26.7300 
576.852	-0.1523	-0.0059	0.9678	-4.0594	7.6685	-83.4906	26.7300 
576.872	-0.1421	0.0034	0.9551	-3.8892	7.4487	-82.4689	26.7300 
576.894	-0.1353	-0.0098	0.9644	-3.7463	7.2180	-81.2659	26.7300 
576.942	-0.1221	0.0156	1.0278	-3.5815	6.9763	-79.8541	26.7200 
576.945	-0.1016	0.0503	1.0737	-3.2629	6.7017	-78.1622	26.7200 
576.951	-0.0630	0.0171	1.0283	-2.8180	6.3885	-76.3440	26.7400 
576.973	-0.0176	-0.0254	0.9409	-2.2797	6.0590	-74.5642	26.7300 
576.991	-0.0552	-0.0288	1.0024	-1.7194	5.7623	-72.8174	26.7200 
577.011	-0.0127	-0.1914	1.1587	-1.3403	5.4053	-71.1200	26.7400 
577.031	-0.0029	-0.0923	1.4136	-1.0107	4.9988	-69.3018	26.7200 
577.051	-0.1133	0.0112	1.3599	-0.6097	4.7296	-67.2253	26.7400 
577.071	-0.1904	-0.0518	1.1172	-0.3680	4.6307	-65.0555	26.7400 
577.091	-0.1362	-0.1582	0.9399	-0.4175	4.6857	-62.9626	26.7200 
577.130	0.0098	-0.1421	0.8154	-0.4504	4.7626	-61.1389	26.7300 
577.133	0.0723	-0.1592	0.7832	-0.2802	4.7955	-59.5294	26.7200 
577.150	0.0586	-0.1704	0.8335	-0.2802	4.7845	-58.0957	26.7300 
577.171	0.0229	-0.1533	0.9771	-0.4395	4.6692	-56.5192	26.7400 
577.190	0.0591	-0.1060	1.1616	-0.4669	4.4604	-54.7833	26.7100 
577.210	0.0566	-0.0469	1.2173	-0.2582	4.2517	-52.9431	26.7300 
577.230	0.0405	-0.1089	1.2031	-0.0165	4.0210	-51.0040	26.7300 
577.250	-0.0161	-0.0708	1.1719	0.1099	3.8342	-49.0869	26.7500 
577.270	-0.0093	0.0024	1.1265	0.0000	3.6530	-47.0764	26.7400 
577.291	0.0439	0.0181	1.0000	0.1593	3.4387	-45.1099	26.7300 
577.310	0.0522	-0.0752	0.8711	0.4944	3.2574	-43.2367	26.7300 
577.330	0.0732	-0.0991	0.8750	0.5328	3.1146	-41.4569	26.7500 
577.366	0.0581	-0.0024	0.9434	0.1044	2.9993	-39.6277	26.7400 
577.370	0.0537	-0.0034	0.9814	-0.3351	2.8729	-37.6941	26.7600 
577.389	0.0596	-0.0439	1.0239	-0.5109	2.7246	-35.7605	26.7600 
577.415	0.0762	-0.0513	1.0332	-0.4285	2.5708	-33.8599	26.7500 
577.429	0.1753	-0.0693	1.0239	-0.4230	2.3840	-31.9318	26.7500 
577.450	0.1978	-0.0244	1.0649	0.0769	2.1259	-30.0146	26.7600 
577.469	0.0942	-0.0708	0.9751	0.7361	1.8622	-28.2239	26.7600 
577.492	0.0532	0.0703	1.0054	1.1426	1.6864	-26.4606	26.7600 
577.509	0.0659	-0.0039	0.9888	1.4502	1.5491	-24.5490	26.7600 
577.555	0.1387	0.0234	0.9697	2.1259	1.3568	-22.6154	26.7500 
577.557	0.2520	0.0420	0.9463	3.3563	1.0876	-20.7806	26.7500 
577.569	0.2407	0.0420	1.0273	4.3671	0.7416	-18.9240	26.7600 
577.589	0.1680	-0.0557	1.0898	4.5758	0.3900	-17.0947	26.7500 
577.609	0.2046	0.0864	1.0659	4.7791	0.1758	-15.6775	26.7600 
577.628	0.0947	0.0337	1.1084	5.3558	0.1154	-14.5679	26.7500 
577.648	0.0557	0.0981	1.0889	5.9875	0.0989	-13.5791	26.7600 
577.668	0.0059	0.0850	0.9375	6.8225	0.2142	-12.7441	26.7500 
577.688	-0.0225	0.0146	0.8955	7.2894	0.4614	-12.1014	26.7300 
577.708	-0.0620	-0.0063	1.0068	7.4268	0.7690	-11.6565	26.7600 
577.743	0.0000	0.1509	1.0654	7.3828	1.0217	-11.2061	26.7400 
577.748	0.0039	-0.0278	0.9771	7.3773	1.1975	-10.6128	26.7500 
577.768	-0.0874	-0.0396	1.0317	7.2235	1.4722	-10.1294	26.7400 
577.788	-0.1924	0.0352	1.0811	6.8335	1.8951	-9.7888	26.7400 
577.808	-0.1743	0.0723	1.0874	6.4984	2.3730	-9.4537	26.7500 
577.828	-0.0615	0.0332	1.0928	6.0974	2.7795	-8.9484	26.7400 
577.847	0.0015	0.0137	1.0747	5.7843	3.0707	-8.3276	26.7400 
577.867	0.0361	0.0405	1.0488	5.7129	3.2684	-7.6904	26.7500 
577.887	0.0303	0.0264	1.0352	5.8667	3.3893	-7.0532	26.7400 
577.908	-0.0151	-0.0522	1.0068	5.8832	3.4882	-6.4709	26.7400 
577.926	-0.0503	0.0029	1.0464	5.6140	3.6420	-6.0425	26.7400 
577.987	-0.0127	0.0293	1.0464	5.1416	3.8287	-5.7404	26.7500 
577.989	-0.0415	-0.0010	1.0127	4.8944	3.9880	-5.4822	26.7500 
577.989	-0.0786	0.0049	0.9858	4.8889	4.1913	-5.3778	26.7500 
578.007	-0.0884	0.0059	0.9922	4.8944	4.3945	-5.3229	26.7400 
578.027	-0.0684	0.0283	1.0029	4.8944	4.5978	-5.3119	26.7500 
578.047	-0.0547	0.0552	1.0493	4.8944	4.7845	-5.2954	26.7700 
578.066	-0.0166	0.0288	1.0200	4.8999	4.8834	-5.2460	26.7500 
578.086	-0.0337	0.0332	1.0420	4.9768	4.9548	-5.1965	26.7600 
578.108	-0.0278	0.0464	1.0195	4.9054	4.9603	-5.0977	26.7400 
578.126	-0.0283	0.0391	1.0059	5.0427	4.9493	-5.0098	26.7400 
578.172	-0.0259	0.0649	1.0151	5.3174	4.9713	-5.0317	26.7500 
578.175	-0.0444	0.0566	1.0210	5.6195	5.0098	-5.0702	26.7600 
578.186	-0.0425	0.0537	1.0322	5.8008	5.0812	-5.1306	26.7400 
578.206	-0.0332	0.0576	1.0605	5.6415	5.1801	-5.1581	26.7500 
578.226	-0.0249	0.0498	1.0850	5.3833	5.3119	-5.1910	26.7500 
578.246	-0.0269	0.0864	1.0742	5.3668	5.3888	-5.2350	26.7600 
578.266	-0.0352	0.0547	1.0288	5.6909	5.4712	-5.4108	26.7600 
578.286	-0.0444	0.0635	1.0186	5.5811	5.5316	-5.4712	26.7400 
578.306	-0.0444	0.0693	1.0264	5.3339	5.5371	-5.3394	26.7700 
578.368	-0.0020	0.0005	1.0244	5.3778	5.4932	-5.2844	26.7600 
578.370	-0.0093	0.0249	0.9902	5.1416	5.4547	-5.3394	26.7600 
578.370	-0.0005	0.0693	1.0156	4.9933	5.4492	-5.4767	26.7700 
578.385	-0.0293	0.0547	1.0313	4.9329	5.4712	-5.6635	26.7600 
578.405	-0.0449	0.0566	1.0210	4.7955	5.4987	-5.8447	26.7500 
578.426	-0.0493	0.0464	1.0244	4.6747	5.5481	-6.0919	26.7400 
578.445	-0.0327	0.0703	1.0425	4.5374	5.5975	-6.3336	26.7500 
578.464	-0.0366	0.0723	1.0396	4.4550	5.6305	-6.5588	26.7800 
578.484	-0.0405	0.0864	1.0400	4.3835	5.6415	-6.7456	26.7600 
578.504	-0.0454	0.0903	1.0215	4.3890	5.6360	-6.8994	26.7600 
578.568	-0.0278	0.0713	1.0063	4.4055	5.6360	-7.0532	26.7700 
578.572	-0.0205	0.0562	1.0024	4.4330	5.6305	-7.1851	26.7700 
578.572	-0.0303	0.0654	1.0176	4.4220	5.6415	-7.3279	26.7600 
578.584	-0.0313	0.0527	1.0415	4.4220	5.6525	-7.4982	26.7500 
578.604	-0.0249	0.0635	1.0352	4.4000	5.6744	-7.6630	26.7600 
578.624	-0.0371	0.0869	1.0283	4.3616	5.6964	-7.8113	26.7500 
578.645	-0.0396	0.0786	1.0171	4.3561	5.7129	-7.9321	26.7700 
578.664	-0.0410	0.0669	1.0088	4.3671	5.7184	-8.0255	26.7700 
578.684	-0.0317	0.0732	1.0107	4.3231	5.7129	-8.0914	26.7800 
578.704	-0.0244	0.0806	1.0288	4.3176	5.6964	-8.1189	26.7800 
578.755	-0.0186	0.0767	1.0435	4.3231	5.6525	-8.1409	26.7700 
578.758	-0.0225	0.0713	1.0298	4.3066	5.6085	-8.1628	26.7800 
578.763	-0.0269	0.0840	1.0269	4.2627	5.5646	-8.2013	26.7800 
578.783	-0.0269	0.0737	1.0308	4.2188	5.5206	-8.2233	26.7900 
578.803	-0.0249	0.0664	1.0244	4.1803	5.4822	-8.2562	26.7900 
578.823	-0.0269	0.0703	1.0313	4.1364	5.4547	-8.2892	26.7700 
578.843	-0.0220	0.0752	1.0337	4.1199	5.4272	-8.3276	26.7700 
578.863	-0.0146	0.0723	1.0317	4.1144	5.3833	-8.3496	26.7700 
578.882	-0.0151	0.0752	1.0293	4.1144	5.3339	-8.3661	26.7700 
578.902	-0.0137	0.0757	1.0361	4.0924	5.2899	-8.4045	26.7800 
578.922	-0.0049	0.0718	1.0259	4.0155	5.2460	-8.4485	26.7700 
578.942	-0.0132	0.0454	1.0103	3.9331	5.2075	-8.5199	26.7800 
579.001	-0.0156	0.0664	1.0327	3.9001	5.1746	-8.6078	26.7700 
579.003	-0.0200	0.0718	1.0361	3.8672	5.1526	-8.6957	26.7900 
579.003	-0.0161	0.0693	1.0273	3.8672	5.1251	-8.7671	26.7900 
579.022	-0.0205	0.0547	1.0269	3.8672	5.0977	-8.8385	26.7800 
579.042	-0.0112	0.0781	1.0225	3.8727	5.0702	-8.8934	26.7900 
579.062	-0.0171	0.0630	1.0317	3.9001	5.0372	-8.9319	26.7800 
579.082	-0.0161	0.0811	1.0386	3.9331	5.0043	-8.9594	26.8000 
579.102	-0.0205	0.0693	1.0269	3.9771	4.9713	-8.9868	26.7900 
579.124	-0.0132	0.0815	1.0254	4.0430	4.9384	-8.9978	26.7800 
579.141	-0.0093	0.0815	1.0259	4.1199	4.9054	-8.9868	26.7800 
579.187	-0.0103	0.0479	1.0313	4.1968	4.8615	-8.9758	26.7700 
579.190	-0.0015	0.0654	1.0298	4.2957	4.8175	-8.9648	26.7700 
579.201	0.0044	0.0659	1.0181	4.3286	4.7736	-8.9374	26.7900 
579.220	-0.0010	0.0825	1.0259	4.3506	4.7241	-8.9209	26.7900 
579.241	-0.0078	0.0796	1.0181	4.3506	4.6967	-8.9209	26.8000 
579.261	-0.0107	0.0732	1.0254	4.3286	4.6747	-8.9099	26.8000 
579.280	-0.0269	0.0825	1.0400	4.2682	4.6747	-8.9044	26.8000 
579.301	-0.0386	0.0864	1.0420	4.1583	4.7076	-8.9154	26.8100 
579.321	-0.0181	0.0815	1.0439	4.0210	4.7406	-8.9154	26.7700 
579.379	-0.0049	0.0679	1.0479	3.8507	4.7461	-8.8770	26.8000 
579.381	0.0215	0.0415	1.0249	3.5925	4.7076	-8.7946	26.8000 
579.381	0.0098	0.0605	1.0288	3.3673	4.6472	-8.7067	26.7900 
579.400	0.0098	0.0474	1.0098	3.1970	4.5813	-8.5913	26.7900 
579.420	0.0073	0.0371	0.9980	3.0597	4.5319	-8.4760	26.7800 
579.440	0.0005	0.0581	1.0283	2.9443	4.4934	-8.4100	26.7900 
579.460	-0.0073	0.0620	1.0220	2.8894	4.4550	-8.3606	26.8000 
579.480	-0.0020	0.0469	1.0195	2.8564	4.4055	-8.3276	26.8000 
579.500	0.0020	0.0410	1.0151	2.8564	4.3506	-8.2947	26.8100 
579.521	-0.0107	0.0488	1.0151	2.8784	4.3176	-8.3057	26.8000 
579.566	-0.0161	0.0713	1.0308	2.9224	4.2847	-8.3167	26.8100 
579.568	-0.0122	0.0591	1.0371	2.9718	4.2572	-8.2947	26.8000 
579.579	0.0015	0.0400	1.0376	3.0048	4.2133	-8.2672	26.8000 
579.600	-0.0020	0.0518	1.0356	3.0322	4.1693	-8.2782	26.7900 
579.619	-0.0112	0.0669	1.0229	3.0597	4.1254	-8.3002	26.8000 
579.639	-0.0029	0.0737	1.0200	3.0707	4.0924	-8.3221	26.7900 
579.659	-0.0068	0.0532	1.0166	3.0597	4.0704	-8.3496	26.7900 
579.679	-0.0044	0.0479	1.0308	3.0377	4.0540	-8.3661	26.8000 
579.698	0.0054	0.0581	1.0273	3.0103	4.0485	-8.3881	26.8100 
579.718	0.0005	0.0508	1.0239	2.9993	4.0430	-8.3936	26.7900 
579.740	-0.0073	0.0620	1.0259	3.0157	4.0320	-8.3826	26.8100 
579.762	-0.0068	0.0620	1.0278	3.0267	4.0210	-8.3551	26.8000 
579.807	-0.0020	0.0591	1.0249	3.0432	4.0155	-8.3386	26.8100 
579.809	0.0010	0.0464	1.0200	3.0432	4.0100	-8.3276	26.8100 
579.818	0.0010	0.0469	1.0269	3.0157	4.0155	-8.3386	26.8000 
579.838	0.0039	0.0547	1.0264	2.9773	4.0375	-8.3661	26.7900 
579.858	-0.0083	0.0723	1.0254	2.9443	4.0759	-8.4100	26.8100 
579.878	-0.0088	0.0669	1.0254	2.8894	4.1089	-8.4430	26.8100 
579.898	-0.0112	0.0562	1.0264	2.8510	4.1418	-8.4650	26.8100 
579.918	-0.0127	0.0557	1.0322	2.7795	4.1693	-8.4814	26.8100 
579.940	-0.0020	0.0537	1.0313	2.6642	4.1968	-8.4814	26.8100 
579.959	0.0034	0.0444	1.0264	2.5214	4.2133	-8.4760	26.8100 
579.997	-0.0024	0.0508	1.0239	2.3840	4.2352	-8.4814	26.8000 
579.999	-0.0063	0.0518	1.0215	2.2467	4.2462	-8.5089	26.8200 
580.017	-0.0122	0.0537	1.0288	2.1368	4.2572	-8.5419	26.8100 
580.037	-0.0122	0.0444	1.0288	2.0105	4.2737	-8.5803	26.8100 
580.057	-0.0088	0.0386	1.0352	1.8787	4.2847	-8.6188	26.7900 
580.077	-0.0142	0.0332	1.0278	1.7358	4.3011	-8.6682	26.8100 
580.097	-0.0098	0.0420	1.0337	1.6205	4.3286	-8.7231	26.8200 
580.116	-0.0073	0.0356	1.0327	1.4886	4.3561	-8.7726	26.8200 
580.139	0.0020	0.0332	1.0229	1.3678	4.3726	-8.8165	26.8300 
580.197	-0.0063	0.0259	1.0249	1.2964	4.3781	-8.8495	26.8400 
580.199	-0.0137	0.0381	1.0313	1.2744	4.3781	-8.8824	26.8200 
580.199	-0.0117	0.0391	1.0347	1.2634	4.3726	-8.8934	26.8100 
580.216	-0.0112	0.0396	1.0293	1.2360	4.3726	-8.9044	26.8100 
580.236	-0.0151	0.0249	1.0190	1.2085	4.3671	-8.9209	26.8200 
580.256	-0.0171	0.0400	1.0322	1.1810	4.3726	-8.9429	26.8200 
580.276	-0.0156	0.0205	1.0249	1.1481	4.3781	-8.9703	26.8200 
580.296	-0.0137	0.0171	1.0342	1.1316	4.3726	-8.9923	26.8200 
580.316	-0.0117	0.0366	1.0400	1.0986	4.3726	-9.0198	26.8400 
580.336	-0.0093	0.0420	1.0342	1.0437	4.3671	-9.0472	26.8100 
580.396	-0.0127	0.0366	1.0283	1.0107	4.3451	-9.0527	26.8200 
580.398	-0.0171	0.0337	1.0254	0.9998	4.3231	-9.0527	26.8100 
580.398	-0.0127	0.0308	1.0347	0.9833	4.2902	-9.0417	26.8100 
580.415	-0.0039	0.0156	1.0269	0.9558	4.2627	-9.0198	26.8300 
580.436	-0.0020	0.0146	1.0176	0.9064	4.2462	-9.0363	26.8300 
580.456	-0.0132	0.0435	1.0352	0.8899	4.2462	-9.0802	26.8300 
580.475	-0.0176	0.0337	1.0366	0.8844	4.2352	-9.1022	26.8300 
580.495	-0.0137	0.0176	1.0337	0.8844	4.2188	-9.1077	26.8200 
580.515	-0.0078	0.0215	1.0264	0.8789	4.2023	-9.1022	26.8100 
580.536	-0.0093	0.0278	1.0244	0.8569	4.2023	-9.1187	26.8200 
580.586	-0.0088	0.0254	1.0239	0.8240	4.2023	-9.1351	26.8300 
580.588	-0.0166	0.0420	1.0332	0.8185	4.2078	-9.1461	26.8200 
580.595	-0.0225	0.0273	1.0322	0.8075	4.2133	-9.1681	26.8200 
580.615	-0.0200	0.0283	1.0254	0.7965	4.2242	-9.1901	26.8400 
580.635	-0.0171	0.0298	1.0269	0.7855	4.2407	-9.2065	26.8300 
580.654	-0.0166	0.0361	1.0327	0.7800	4.2572	-9.2065	26.8300 
580.674	-0.0132	0.0332	1.0332	0.7581	4.2792	-9.2065	26.8300 
580.695	-0.0166	0.0269	1.0322	0.7031	4.3011	-9.2175	26.8100 
580.714	-0.0122	0.0239	1.0298	0.6097	4.3286	-9.2340	26.8300 
580.734	-0.0142	0.0166	1.0244	0.5383	4.3561	-9.2615	26.8400 
580.754	-0.0132	0.0303	1.0269	0.4834	4.3781	-9.2834	26.8300 
580.774	-0.0215	0.0322	1.0278	0.4559	4.4000	-9.2944	26.8300 
580.827	-0.0210	0.0327	1.0308	0.4449	4.4110	-9.2944	26.8400 
580.829	-0.0229	0.0234	1.0317	0.4120	4.4330	-9.3109	26.8400 
580.834	-0.0205	0.0244	1.0322	0.3735	4.4550	-9.3164	26.8400 
580.853	-0.0151	0.0356	1.0337	0.3296	4.4769	-9.3164	26.8100 
580.873	-0.0166	-0.0024	1.0229	0.2637	4.4824	-9.3219	26.8300 
580.894	-0.0181	0.0220	1.0293	0.2087	4.4934	-9.3219	26.8200 
580.913	-0.0244	0.0361	1.0298	0.1703	4.4989	-9.3109	26.8100 
580.933	-0.0215	0.0249	1.0278	0.1703	4.4879	-9.2889	26.8400 
580.954	-0.0200	0.0249	1.0244	0.2032	4.4769	-9.2560	26.8300 
580.975	-0.0205	0.0181	1.0269	0.2362	4.4550	-9.2230	26.8300 
581.022	-0.0234	0.0342	1.0376	0.2747	4.4330	-9.1901	26.8400 
581.038	-0.0176	0.0293	1.0410	0.3076	4.4110	-9.1406	26.8500 
581.042	-0.0156	0.0210	1.0347	0.3461	4.3835	-9.0967	26.8400 
581.053	-0.0161	0.0205	1.0254	0.3735	4.3616	-9.0637	26.8300 
581.073	-0.0122	0.0176	1.0259	0.3790	4.3396	-9.0308	26.8300 
581.100	-0.0117	0.0244	1.0283	0.3845	4.3176	-9.0033	26.8300 
581.112	-0.0181	0.0332	1.0317	0.4065	4.3011	-8.9703	26.8200 
581.132	-0.0181	0.0337	1.0361	0.4559	4.2792	-8.9264	26.8200 
581.155	-0.0176	0.0293	1.0322	0.5219	4.2517	-8.8770	26.8400 
581.172	-0.0156	0.0337	1.0313	0.5713	4.2242	-8.8440	26.8400 
581.211	-0.0132	0.0313	1.0273	0.5933	4.2133	-8.8330	26.8400 
581.214	-0.0103	0.0229	1.0293	0.5988	4.2023	-8.8165	26.8400 
581.232	-0.0098	0.0288	1.0332	0.5988	4.1913	-8.8110	26.8400 
581.252	-0.0122	0.0317	1.0317	0.5988	4.1803	-8.8055	26.8200 
581.272	-0.0132	0.0303	1.0332	0.6042	4.1693	-8.8055	26.8200 
581.292	-0.0112	0.0264	1.0283	0.6042	4.1473	-8.8110	26.8100 
581.311	-0.0112	0.0298	1.0264	0.5933	4.1364	-8.8275	26.8400 
581.331	-0.0137	0.0288	1.0273	0.5713	4.1309	-8.8605	26.8400 
581.351	-0.0122	0.0313	1.0283	0.5713	4.1309	-8.8934	26.8400 
581.399	-0.0137	0.0288	1.0293	0.5823	4.1309	-8.9264	26.8400 
581.401	-0.0127	0.0269	1.0327	0.5933	4.1254	-8.9594	26.8300 
581.411	-0.0151	0.0337	1.0313	0.5878	4.1254	-8.9978	26.8400 
581.431	-0.0088	0.0342	1.0308	0.5658	4.1254	-9.0363	26.8300 
581.451	-0.0078	0.0195	1.0249	0.5493	4.1199	-9.0747	26.8400 
581.471	-0.0103	0.0396	1.0322	0.5383	4.1199	-9.1022	26.8400 
581.491	-0.0122	0.0220	1.0249	0.5219	4.1254	-9.1296	26.8300 
581.511	-0.0068	0.0225	1.0259	0.5164	4.1254	-9.1461	26.8400 
581.531	-0.0093	0.0386	1.0356	0.5273	4.1309	-9.1626	26.8400 
581.550	-0.0142	0.0386	1.0322	0.5658	4.1309	-9.1736	26.8400 
581.570	-0.0142	0.0342	1.0308	0.6152	4.1254	-9.1791	26.8500 
581.590	-0.0171	0.0249	1.0215	0.6592	4.1199	-9.1901	26.8400 
581.638	-0.0132	0.0278	1.0259	0.6757	4.1089	-9.1956	26.8400 
581.641	-0.0137	0.0356	1.0317	0.6812	4.1034	-9.2065	26.8500 
581.650	-0.0151	0.0361	1.0366	0.6976	4.0979	-9.2120	26.8500 
581.670	-0.0127	0.0342	1.0303	0.7251	4.0869	-9.2120	26.8400 
581.689	-0.0103	0.0347	1.0293	0.7471	4.0759	-9.2010	26.8400 
581.710	-0.0122	0.0352	1.0278	0.7800	4.0540	-9.1901	26.8400 
581.729	-0.0142	0.0327	1.0234	0.8075	4.0375	-9.1626	26.8400 
581.749	-0.0093	0.0381	1.0259	0.8514	4.0155	-9.1241	26.8400 
581.770	-0.0083	0.0396	1.0259	0.8954	3.9935	-9.0857	26.8500 
581.789	-0.0103	0.0493	1.0337	0.9503	3.9716	-9.0637	26.8500 
581.825	-0.0098	0.0449	1.0303	0.9888	3.9606	-9.0472	26.8400 
581.829	-0.0107	0.0410	1.0288	1.0162	3.9441	-9.0308	26.8600 
581.849	-0.0117	0.0356	1.0303	1.0217	3.9386	-9.0253	26.8400 
581.869	-0.0088	0.0430	1.0278	1.0327	3.9276	-9.0198	26.8400 
581.889	-0.0098	0.0425	1.0259	1.0547	3.9221	-9.0253	26.8500 
581.909	-0.0103	0.0391	1.0288	1.0602	3.9111	-9.0363	26.8500 
581.928	-0.0132	0.0381	1.0254	1.0602	3.9056	-9.0582	26.8400 
581.949	-0.0063	0.0405	1.0264	1.0657	3.9001	-9.0692	26.8500 
581.969	-0.0073	0.0420	1.0293	1.0712	3.8947	-9.0802	26.8600 
582.016	-0.0117	0.0435	1.0269	1.0822	3.8892	-9.0912	26.8500 
582.020	-0.0117	0.0415	1.0303	1.0986	3.8837	-9.0857	26.8400 
582.028	-0.0078	0.0391	1.0278	1.1151	3.8727	-9.0747	26.8500 
582.048	-0.0098	0.0493	1.0283	1.1261	3.8672	-9.0747	26.8600 
582.068	-0.0083	0.0474	1.0273	1.1261	3.8617	-9.0857	26.8400 
582.088	-0.0093	0.0356	1.0254	1.1261	3.8617	-9.1132	26.8500 
582.108	-0.0112	0.0493	1.0283	1.1261	3.8617	-9.1351	26.8400 
582.128	-0.0107	0.0400	1.0269	1.1371	3.8562	-9.1461	26.8500 
582.147	-0.0107	0.0361	1.0273	1.1591	3.8452	-9.1406	26.8400 
582.171	-0.0107	0.0527	1.0337	1.1975	3.8342	-9.1187	26.8500 
582.213	-0.0112	0.0508	1.0337	1.2415	3.8177	-9.1077	26.8600 
582.217	-0.0059	0.0420	1.0254	1.2799	3.8013	-9.0967	26.8500 
582.227	-0.0059	0.0386	1.0200	1.2964	3.7848	-9.0912	26.8600 
582.247	-0.0073	0.0454	1.0239	1.2799	3.7793	-9.0967	26.8600 
582.267	-0.0107	0.0459	1.0278	1.2689	3.7738	-9.1022	26.8600