StartTime: 2018-11-15 20:11:00.594
Time(s)	AngleX(deg)	AngleY(deg)	AngleZ(deg)	T(Â°) 
2061.612	9.9261	17.8802	-9.2395	0.0000 
2061.635	9.9042	17.8802	-9.2450	0.0000 
2061.644	9.8712	17.8802	-9.2230	0.0000 
2061.664	9.8602	17.8638	-9.1681	0.0000 
2061.683	9.8492	17.8363	-9.1132	0.0000 
2061.758	9.8163	17.8143	-9.0692	0.0000 
2061.768	9.7998	17.8198	-9.0198	0.0000 
2061.769	9.8053	17.8198	-8.9264	0.0000 
2061.769	9.8273	17.8033	-8.8000	0.0000 
2061.791	9.8492	17.7869	-8.6462	0.0000 
2061.813	9.8932	17.7759	-8.4760	0.0000 
2061.824	9.9152	17.7649	-8.2837	0.0000 
2061.843	9.9536	17.7594	-8.0804	0.0000 
2061.862	10.0085	17.7484	-7.8442	0.0000 
2061.882	10.0745	17.7484	-7.5641	0.0000 
2061.902	10.1459	17.7704	-7.2729	0.0000 
2061.989	10.2228	17.7814	-6.9324	0.0000 
2061.995	10.2942	17.7539	-6.5259	0.0000 
2061.995	10.3326	17.6990	-6.1029	0.0000 
2061.995	10.3491	17.6495	-5.6964	0.0000 
2062.002	10.3656	17.6111	-5.3009	0.0000 
2062.022	10.3931	17.5452	-4.9109	0.0000 
2062.044	10.4095	17.4463	-4.5593	0.0000 
2062.067	10.3656	17.3584	-4.3066	0.0000 
2062.091	10.3107	17.3090	-4.1254	0.0000 
2062.164	10.2887	17.2980	-3.9771	0.0000 
2062.175	10.2942	17.2705	-3.8177	0.0000 
2062.175	10.2722	17.2321	-3.7024	0.0000 
2062.175	10.2173	17.2046	-3.6639	0.0000 
2062.181	10.1404	17.1991	-3.6749	0.0000 
2062.200	10.0635	17.2046	-3.7079	0.0000 
2062.220	9.9701	17.1991	-3.7958	0.0000 
2062.241	9.8547	17.1991	-3.9441	0.0000 
2062.262	9.7174	17.2101	-4.1254	0.0000 
2062.284	9.5856	17.2211	-4.2627	0.0000 
2062.307	9.4812	17.2266	-4.3066	0.0000 
2062.394	9.3878	17.2321	-4.2902	0.0000 
2062.400	9.2889	17.2540	-4.2847	0.0000 
2062.400	9.1846	17.3035	-4.3066	0.0000 
2062.400	9.0857	17.3804	-4.3451	0.0000 
2062.400	8.9648	17.4408	-4.3781	0.0000 
2062.426	8.8220	17.4738	-4.4000	0.0000 
2062.448	8.7067	17.5342	-4.4385	0.0000 
2062.460	8.6133	17.6056	-4.4769	0.0000 
2062.486	8.5199	17.6550	-4.4659	0.0000 
2062.514	8.4155	17.7100	-4.4440	0.0000 
2062.531	8.3002	17.7649	-4.4220	0.0000 
2062.539	8.2288	17.8088	-4.3781	0.0000 
2062.558	8.1409	17.8528	-4.3506	0.0000 
2062.644	7.9871	17.8857	-4.3726	0.0000 
2062.651	7.8442	17.9132	-4.4000	0.0000 
2062.651	7.7563	17.9132	-4.3890	0.0000 
2062.651	7.6630	17.8693	-4.3451	0.0000 
2062.658	7.5696	17.8088	-4.3176	0.0000 
2062.677	7.5366	17.7869	-4.2792	0.0000 
2062.699	7.5696	17.7814	-4.1913	0.0000 
2062.720	7.5421	17.7924	-4.1034	0.0000 
2062.742	7.4487	17.8363	-4.0759	0.0000 
2062.816	7.3608	17.8967	-4.0759	0.0000 
2062.827	7.2949	17.9407	-4.0759	0.0000 
2062.827	7.2290	17.9681	-4.0979	0.0000 
2062.827	7.1631	17.9736	-4.1364	0.0000 
2062.837	7.1082	17.9846	-4.1913	0.0000 
2062.856	7.0477	17.9956	-4.2627	0.0000 
2062.876	7.0313	18.0121	-4.3121	0.0000 
2062.896	7.0477	18.0231	-4.3396	0.0000 
2062.916	7.0752	18.0505	-4.4000	0.0000 
2062.993	7.0862	18.1000	-4.5264	0.0000 
2063.004	7.0642	18.1879	-4.7131	0.0000 
2063.004	7.0642	18.2648	-4.8779	0.0000 
2063.004	7.0807	18.3197	-5.0317	0.0000 
2063.026	7.0972	18.3691	-5.2240	0.0000 
2063.037	7.1576	18.4406	-5.4437	0.0000 
2063.056	7.2510	18.5065	-5.6689	0.0000 
2063.076	7.3553	18.5394	-5.8997	0.0000 
2063.096	7.4487	18.5834	-6.1578	0.0000 
2063.167	7.5421	18.6383	-6.4545	0.0000 
2063.177	7.6135	18.6987	-6.7841	0.0000 
2063.178	7.7069	18.7262	-7.1027	0.0000 
2063.184	7.8278	18.7372	-7.4213	0.0000 
2063.201	7.9431	18.7207	-7.7234	0.0000 
2063.223	8.0969	18.6877	-7.9486	0.0000 
2063.244	8.2892	18.6328	-8.0750	0.0000 
2063.266	8.5199	18.6053	-8.1573	0.0000 
2063.276	8.7341	18.6548	-8.2947	0.0000 
2063.294	8.8989	18.7482	-8.4979	0.0000 
2063.314	9.0253	18.8361	-8.7561	0.0000 
2063.398	9.1351	18.9075	-9.0472	0.0000 
2063.405	9.2340	18.9514	-9.3274	0.0000 
2063.405	9.2725	18.9624	-9.5856	0.0000 
2063.405	9.2670	18.9075	-9.7833	0.0000 
2063.414	9.2175	18.8306	-9.9426	0.0000 
2063.434	9.1351	18.7482	-10.0800	0.0000 
2063.454	9.0198	18.6273	-10.2118	0.0000 
2063.475	8.9209	18.4680	-10.2887	0.0000 
2063.496	8.8440	18.2867	-10.3217	0.0000 
2063.517	8.7671	18.1165	-10.3217	0.0000 
2063.540	8.6627	17.9736	-10.3271	0.0000 
2063.630	8.5474	17.8638	-10.3271	0.0000 
2063.637	8.4265	17.7429	-10.3162	0.0000 
2063.637	8.3167	17.6166	-10.3052	0.0000 
2063.637	8.2123	17.4792	-10.2887	0.0000 
2063.638	8.1299	17.3254	-10.2502	0.0000 
2063.661	8.0475	17.1552	-10.1788	0.0000 
2063.673	7.9651	16.9794	-10.0690	0.0000 
2063.692	7.9102	16.8091	-9.9316	0.0000 
2063.712	7.8552	16.6553	-9.7723	0.0000 
2063.732	7.8278	16.5454	-9.5691	0.0000 
2063.802	7.8333	16.4465	-9.2834	0.0000 
2063.813	7.8827	16.3751	-8.9209	0.0000 
2063.814	7.9651	16.3202	-8.5144	0.0000 
2063.820	8.0530	16.2817	-8.1079	0.0000 
2063.837	8.1519	16.2762	-7.7179	0.0000 
2063.859	8.2343	16.2762	-7.3499	0.0000 
2063.872	8.3112	16.2817	-6.9763	0.0000 
2063.891	8.3826	16.2982	-6.5918	0.0000 
2063.978	8.4760	16.3477	-6.1908	0.0000 
2063.984	8.6078	16.3971	-5.7349	0.0000 
2063.984	8.7506	16.4410	-5.2405	0.0000 
2063.984	8.9429	16.4795	-4.7021	0.0000 
2063.990	9.1241	16.5070	-4.1968	0.0000 
2064.010	9.3164	16.5289	-3.7518	0.0000 
2064.033	9.5087	16.6388	-3.4058	0.0000 
2064.055	9.6790	16.8091	-3.1531	0.0000 
2064.076	9.8547	16.9080	-2.8400	0.0000 
2064.099	9.9701	16.8530	-2.4829	0.0000 
2064.110	10.0140	16.7322	-2.1094	0.0000 
2064.130	10.0909	16.6553	-1.7413	0.0000 
2064.210	10.1239	16.6498	-1.4502	0.0000 
2064.216	10.0580	16.6937	-1.2524	0.0000 
2064.216	9.8932	16.7816	-1.1755	0.0000 
2064.216	9.6899	16.8640	-1.1096	0.0000 
2064.229	9.5361	16.9025	-0.9668	0.0000 
2064.249	9.4592	16.8860	-0.7471	0.0000 
2064.269	9.4263	16.8256	-0.5109	0.0000 
2064.289	9.4208	16.7377	-0.3076	0.0000 
2064.309	9.3768	16.6553	-0.1978	0.0000 
2064.380	9.3054	16.6388	-0.2032	0.0000 
2064.391	9.2230	16.6663	-0.2527	0.0000 
2064.391	9.1351	16.6882	-0.2582	0.0000 
2064.397	9.0198	16.6992	-0.2362	0.0000 
2064.414	8.8934	16.7047	-0.1813	0.0000 
2064.435	8.7781	16.7157	-0.1318	0.0000 
2064.457	8.6737	16.7212	-0.0989	0.0000 
2064.477	8.5748	16.7267	-0.1044	0.0000 
2064.490	8.4650	16.7267	-0.1758	0.0000 
2064.508	8.3771	16.7157	-0.2527	0.0000 
2064.528	8.3112	16.6882	-0.3241	0.0000 
2064.615	8.2727	16.6663	-0.4175	0.0000 
2064.621	8.2507	16.6827	-0.5988	0.0000 
2064.621	8.2562	16.7212	-0.8130	0.0000 
2064.621	8.2672	16.7487	-1.0272	0.0000 
2064.628	8.2507	16.7047	-1.2415	0.0000 
2064.648	8.2288	16.5344	-1.4337	0.0000 
2064.668	8.2233	16.3586	-1.6589	0.0000 
2064.692	8.2343	16.1993	-1.8787	0.0000 
2064.715	8.2452	16.0291	-2.0050	0.0000 
2064.736	8.3276	15.8972	-2.0270	0.0000 
2064.746	8.4320	15.8478	-2.0050	0.0000 
2064.766	8.5803	15.8423	-1.9775	0.0000 
2064.836	8.6737	15.8423	-2.0160	0.0000 
2064.847	8.6462	15.8588	-2.1808	0.0000 
2064.847	8.5583	15.8313	-2.3401	0.0000 
2064.854	8.4595	15.7874	-2.4664	0.0000 
2064.869	8.3276	15.7159	-2.5488	0.0000 
2064.891	8.1903	15.6500	-2.5928	0.0000 
2064.913	8.0914	15.6390	-2.5598	0.0000 
2064.934	7.9980	15.6830	-2.4994	0.0000 
2065.009	7.8772	15.7489	-2.4445	0.0000 
2065.020	7.7454	15.8258	-2.4335	0.0000 
2065.020	7.5751	15.8807	-2.4829	0.0000 
2065.021	7.4103	15.9192	-2.5818	0.0000 
2065.027	7.2620	15.9412	-2.7026	0.0000 
2065.045	7.1576	15.9467	-2.8015	0.0000 
2065.066	7.1136	15.9302	-2.8290	0.0000 
2065.086	7.0697	15.9082	-2.8015	0.0000 
2065.109	7.0477	15.9082	-2.7356	0.0000 
2065.131	7.0313	15.9357	-2.6532	0.0000 
2065.152	6.9818	15.9906	-2.5873	0.0000 
2065.164	6.9379	16.0730	-2.5159	0.0000 
2065.245	6.9159	16.1609	-2.4390	0.0000 
2065.256	6.8774	16.2268	-2.3456	0.0000 
2065.256	6.8500	16.2708	-2.2083	0.0000 
2065.256	6.8719	16.2982	-2.0160	0.0000 
2065.263	6.9379	16.3037	-1.8018	0.0000 
2065.283	7.0258	16.3037	-1.5985	0.0000 
2065.303	7.1191	16.3147	-1.4392	0.0000 
2065.324	7.2125	16.3531	-1.3019	0.0000 
2065.343	7.2839	16.3916	-1.1536	0.0000 
2065.424	7.3828	16.4026	-0.9338	0.0000 
2065.435	7.5311	16.4026	-0.6262	0.0000 
2065.435	7.7179	16.4081	-0.3076	0.0000 
2065.435	7.9486	16.4191	-0.0165	0.0000 
2065.442	8.2288	16.5070	0.2472	0.0000 
2065.462	8.4869	16.6608	0.4834	0.0000 
2065.482	8.7396	16.7816	0.7251	0.0000 
2065.502	8.8824	16.8201	0.9833	0.0000 
2065.523	8.9868	16.8146	1.3184	0.0000 
2065.545	9.1077	16.8256	1.6754	0.0000 
2065.566	9.1846	16.8640	1.9446	0.0000 
2065.657	9.1901	16.9409	2.0544	0.0000 
2065.664	9.1406	17.0178	2.0929	0.0000 
2065.664	9.0198	17.0398	2.1313	0.0000 
2065.664	8.8989	17.0068	2.1808	0.0000 
2065.664	8.7781	16.9629	2.1863	0.0000 
2065.689	8.6627	16.9354	2.1039	0.0000 
2065.713	8.5364	16.9299	1.9446	0.0000 
2065.721	8.4265	16.9299	1.7798	0.0000 
2065.740	8.3221	16.9244	1.6370	0.0000 
2065.761	8.2288	16.9189	1.5326	0.0000 
2065.835	8.1628	16.9464	1.4557	0.0000 
2065.845	8.0585	16.9904	1.3733	0.0000 
2065.845	7.9541	17.0728	1.2360	0.0000 
2065.845	7.8662	17.1497	1.0767	0.0000 
2065.869	7.7893	17.1991	0.9393	0.0000 
2065.891	7.7014	17.2595	0.7635	0.0000 
2065.900	7.6135	17.3419	0.5273	0.0000 
2065.920	7.5256	17.4243	0.2307	0.0000 
2065.940	7.5037	17.4847	-0.0494	0.0000 
2066.011	7.5751	17.5287	-0.2692	0.0000 
2066.023	7.7014	17.5946	-0.4504	0.0000 
2066.023	7.8387	17.7155	-0.6372	0.0000 
2066.029	7.9596	17.8198	-0.8350	0.0000 
2066.044	8.0640	17.8033	-1.0327	0.0000 
2066.067	8.1573	17.7209	-1.2524	0.0000 
2066.087	8.1793	17.5507	-1.5271	0.0000 
2066.110	8.2123	17.3254	-1.7303	0.0000 
2066.120	8.3386	17.1057	-1.7468	0.0000 
2066.140	8.4430	16.9244	-1.6699	0.0000 
2066.159	8.4485	16.8311	-1.6479	0.0000 
2066.242	8.4100	16.8475	-1.7303	0.0000 
2066.248	8.3386	16.9244	-1.9116	0.0000 
2066.248	8.1628	17.0123	-2.2247	0.0000 
2066.248	7.8992	17.0508	-2.6367	0.0000 
2066.258	7.5806	17.0013	-3.0048	0.0000 
2066.278	7.2620	16.8475	-3.2355	0.0000 
2066.299	6.9873	16.6333	-3.3289	0.0000 
2066.320	6.7456	16.4465	-3.3508	0.0000 
2066.344	6.5259	16.3312	-3.3673	0.0000 
2066.417	6.3336	16.2653	-3.4222	0.0000 
2066.429	6.1578	16.2488	-3.5266	0.0000 
2066.429	6.0040	16.2708	-3.6804	0.0000 
2066.429	5.8722	16.2982	-3.8397	0.0000 
2066.437	5.7678	16.3092	-3.9935	0.0000 
2066.457	5.6635	16.3257	-4.1364	0.0000 
2066.477	5.5920	16.3312	-4.2188	0.0000 
2066.496	5.5536	16.3422	-4.2517	0.0000 
2066.518	5.5481	16.3696	-4.2517	0.0000 
2066.539	5.5371	16.4136	-4.2407	0.0000 
2066.559	5.5206	16.4960	-4.2242	0.0000 
2066.652	5.5096	16.6003	-4.1583	0.0000 
2066.658	5.5316	16.7157	-4.0320	0.0000 
2066.658	5.5865	16.8256	-3.8617	0.0000 
2066.658	5.6799	16.9299	-3.6694	0.0000 
2066.658	5.8008	17.0288	-3.4717	0.0000 
2066.684	5.9601	17.1222	-3.2410	0.0000 
2066.696	6.1304	17.1661	-2.9608	0.0000 
2066.715	6.3171	17.1606	-2.6642	0.0000 
2066.736	6.5039	17.1167	-2.3511	0.0000 
2066.755	6.6687	17.1167	-2.1204	0.0000 
2066.826	6.8445	17.1716	-1.9666	0.0000 
2066.839	6.9873	17.2650	-1.8457	0.0000 
2066.839	7.1906	17.3090	-1.6425	0.0000 
2066.845	7.3993	17.2870	-1.3129	0.0000 
2066.861	7.5970	17.1936	-0.8405	0.0000 
2066.882	7.7838	17.0563	-0.3076	0.0000 
2066.903	7.8937	17.0123	0.1428	0.0000 
2066.915	7.9541	17.0892	0.4395	0.0000 
2066.934	7.8992	17.2375	0.5713	0.0000 
2066.954	7.7728	17.3859	0.6317	0.0000 
2066.973	7.5861	17.5232	0.6647	0.0000 
2067.062	7.4213	17.6495	0.6702	0.0000 
2067.068	7.2784	17.7374	0.6317	0.0000 
2067.068	7.1521	17.7924	0.5219	0.0000 
2067.068	7.0367	17.8143	0.3406	0.0000 
2067.074	6.9269	17.8363	0.1538	0.0000 
2067.094	6.8170	17.8638	-0.0055	0.0000 
2067.117	6.6852	17.9242	-0.1868	0.0000 
2067.137	6.5588	18.0341	-0.3735	0.0000 
2067.158	6.4105	18.1659	-0.5658	0.0000 
2067.238	6.2457	18.2922	-0.7690	0.0000 
2067.249	6.0809	18.4076	-0.9723	0.0000 
2067.249	5.9381	18.5010	-1.1810	0.0000 
2067.249	5.8063	18.5724	-1.4227	0.0000 
2067.255	5.6964	18.6218	-1.6864	0.0000 
2067.273	5.5975	18.6548	-1.9666	0.0000 
2067.292	5.5261	18.6768	-2.2137	0.0000 
2067.314	5.5096	18.6877	-2.4500	0.0000 
2067.335	5.4987	18.6877	-2.7081	0.0000 
2067.358	5.4767	18.6932	-3.0103	0.0000 
2067.383	5.4437	18.6823	-3.3453	0.0000 
2067.401	5.4108	18.6493	-3.6804	0.0000 
2067.476	5.3613	18.5999	-4.0100	0.0000 
2067.487	5.3229	18.5229	-4.3121	0.0000 
2067.488	5.2954	18.3801	-4.6088	0.0000 
2067.488	5.2734	18.1934	-4.9219	0.0000 
2067.503	5.2350	18.0011	-5.2954	0.0000 
2067.512	5.1746	17.8088	-5.6580	0.0000 
2067.536	5.1196	17.6276	-5.9601	0.0000 
2067.551	5.1196	17.4628	-6.1469	0.0000 
2067.571	5.1471	17.3749	-6.2842	0.0000 
2067.657	5.1965	17.3474	-6.4160	0.0000 
2067.663	5.2075	17.3804	-6.6083	0.0000 
2067.663	5.1526	17.4078	-6.8719	0.0000 
2067.663	5.0372	17.3969	-7.2180	0.0000 
2067.670	4.9658	17.3419	-7.5531	0.0000 
2067.691	4.9384	17.2430	-7.8168	0.0000 
2067.712	4.9438	17.1057	-7.9431	0.0000 
2067.734	4.9658	16.9958	-7.9816	0.0000 
2067.757	5.0098	16.9354	-7.9761	0.0000 
2067.779	5.0372	16.8970	-7.9761	0.0000 
2067.790	5.0702	16.8530	-7.9926	0.0000 
2067.809	5.0702	16.8036	-8.0365	0.0000 
2067.895	5.0702	16.7706	-8.0969	0.0000 
2067.901	5.0482	16.7432	-8.1628	0.0000 
2067.901	4.9988	16.6992	-8.2178	0.0000 
2067.901	4.9438	16.6278	-8.2397	0.0000 
2067.909	4.8944	16.5399	-8.2013	0.0000 
2067.928	4.8560	16.4740	-8.1354	0.0000 
2067.949	4.8450	16.4410	-8.0475	0.0000 
2067.973	4.8395	16.4355	-7.9266	0.0000 
2067.994	4.8450	16.4685	-7.7838	0.0000 
2068.069	4.8560	16.5454	-7.6520	0.0000 
2068.080	4.8615	16.6443	-7.5037	0.0000 
2068.080	4.8999	16.7377	-7.3279	0.0000 
2068.080	4.9548	16.8311	-7.1631	0.0000 
2068.088	5.0208	16.9189	-7.0038	0.0000 
2068.107	5.1086	16.9904	-6.8445	0.0000 
2068.127	5.1965	17.0508	-6.6907	0.0000 
2068.147	5.2844	17.1112	-6.5479	0.0000 
2068.167	5.3833	17.1826	-6.3885	0.0000 
2068.191	5.5151	17.2595	-6.1688	0.0000 
2068.211	5.6689	17.3309	-5.8997	0.0000 
2068.302	5.7843	17.4078	-5.6415	0.0000 
2068.308	5.9491	17.5616	-5.4163	0.0000 
2068.308	6.0864	17.8473	-5.2899	0.0000 
2068.308	6.1963	18.1549	-5.2350	0.0000 
2068.308	6.2292	18.3746	-5.1581	0.0000 
2068.333	6.2512	18.4241	-4.8560	0.0000 
2068.356	6.2897	18.4021	-4.4110	0.0000 
2068.367	6.2952	18.4241	-4.0375	0.0000 
2068.386	6.2512	18.5065	-3.8177	0.0000 
2068.406	6.1688	18.6273	-3.7354	0.0000 
2068.486	6.0590	18.7537	-3.7354	0.0000 
2068.487	5.9601	18.8470	-3.7299	0.0000 
2068.487	5.9601	18.9020	-3.6639	0.0000 
2068.493	6.0205	18.9240	-3.5925	0.0000 
2068.510	6.1084	18.9624	-3.6035	0.0000 
2068.531	6.1743	19.0393	-3.7024	0.0000 
2068.551	6.1853	19.1437	-3.8562	0.0000 
2068.575	6.1578	19.2645	-4.0155	0.0000 
2068.653	6.1084	19.3909	-4.1473	0.0000 
2068.664	6.0205	19.5007	-4.2737	0.0000 
2068.664	5.9216	19.6051	-4.4000	0.0000 
2068.665	5.8118	19.7040	-4.5428	0.0000 
2068.671	5.7074	19.7699	-4.7131	0.0000 
2068.687	5.6140	19.7974	-4.9054	0.0000 
2068.711	5.5316	19.7919	-5.1251	0.0000 
2068.729	5.4712	19.7424	-5.3558	0.0000 
2068.752	5.4327	19.6655	-5.5756	0.0000 
2068.773	5.4327	19.5667	-5.7678	0.0000 
2068.796	5.4547	19.4403	-5.9216	0.0000 
2068.804	5.4492	19.3140	-6.0864	0.0000 
2068.886	5.4492	19.2206	-6.2677	0.0000 
2068.893	5.3943	19.1327	-6.4984	0.0000 
2068.893	5.2679	19.0173	-6.7566	0.0000 
2068.893	5.1636	18.9020	-7.0422	0.0000 
2068.904	5.0702	18.7646	-7.3553	0.0000 
2068.923	5.0757	18.6108	-7.5641	0.0000 
2068.943	5.1855	18.5449	-7.7179	0.0000 
2068.963	5.2789	18.5559	-7.8552	0.0000 
2068.985	5.2954	18.6108	-8.0035	0.0000 
2069.062	5.2020	18.6438	-8.2178	0.0000 
2069.073	5.1306	18.6328	-8.4485	0.0000 
2069.073	5.0757	18.5944	-8.7067	0.0000 
2069.073	4.9933	18.5175	-8.9648	0.0000 
2069.082	4.9054	18.4131	-9.1461	0.0000 
2069.102	4.8120	18.3252	-9.2120	0.0000 
2069.122	4.7131	18.2813	-9.2120	0.0000 
2069.142	4.5813	18.2483	-9.1956	0.0000 
2069.162	4.4495	18.1989	-9.1901	0.0000 
2069.182	4.3781	18.1604	-9.2285	0.0000 
2069.203	4.3286	18.1110	-9.2999	0.0000 
2069.301	4.2517	18.0450	-9.3878	0.0000 
2069.301	4.1473	17.9736	-9.4702	0.0000 
2069.301	4.0649	17.8857	-9.4867	0.0000 
2069.301	3.9825	17.7814	-9.4373	0.0000 
2069.307	3.9276	17.6825	-9.3384	0.0000 
2069.327	3.8837	17.6001	-9.2010	0.0000 
2069.349	3.8342	17.5452	-9.0582	0.0000 
2069.369	3.7903	17.5232	-8.8879	0.0000 
2069.381	3.7903	17.5287	-8.6627	0.0000 
2069.471	3.8123	17.5397	-8.4210	0.0000 
2069.482	3.8782	17.5562	-8.1628	0.0000 
2069.482	3.9935	17.5726	-7.9047	0.0000 
2069.482	4.1199	17.5891	-7.6630	0.0000 
2069.488	4.2407	17.6221	-7.4597	0.0000 
2069.506	4.3561	17.6935	-7.2729	0.0000 
2069.525	4.4769	17.8143	-7.1027	0.0000 
2069.546	4.6088	17.9517	-6.8939	0.0000 
2069.568	4.7571	18.0890	-6.6028	0.0000 
2069.580	4.8505	18.2208	-6.3391	0.0000 
2069.599	4.9933	18.3801	-6.1139	0.0000 
2069.619	5.0922	18.6493	-6.0150	0.0000 
2069.702	5.0647	18.9404	-6.1084	0.0000 
2069.709	5.0427	19.1602	-6.2512	0.0000 
2069.709	5.0208	19.1876	-6.1908	0.0000 
2069.709	5.0812	19.1107	-5.8502	0.0000 
2069.718	5.1910	19.0558	-5.4382	0.0000 
2069.738	5.2185	19.0723	-5.1746	0.0000 
2069.758	5.1746	19.1437	-5.1086	0.0000 
2069.778	5.1031	19.2755	-5.1526	0.0000 
2069.801	5.0372	19.4073	-5.1581	0.0000 
2069.875	5.0757	19.4568	-4.9878	0.0000 
2069.886	5.2020	19.4238	-4.7516	0.0000 
2069.886	5.3229	19.3799	-4.6582	0.0000 
2069.886	5.3998	19.3744	-4.7516	0.0000 
2069.907	5.4108	19.4073	-4.9603	0.0000 
2069.918	5.3833	19.4513	-5.1746	0.0000 
2069.937	5.2954	19.5172	-5.3668	0.0000 
2069.958	5.2185	19.6106	-5.5371	0.0000 
2069.977	5.1416	19.6820	-5.6689	0.0000 
2069.996	5.0372	19.7260	-5.8228	0.0000 
2070.018	4.9164	19.7699	-6.0590	0.0000 
2070.107	4.8395	19.8029	-6.3171	0.0000 
2070.113	4.8120	19.7919	-6.5588	0.0000 
2070.113	4.8120	19.7534	-6.8060	0.0000 
2070.113	4.8560	19.7260	-7.0532	0.0000 
2070.119	4.9438	19.6930	-7.2620	0.0000 
2070.139	5.0647	19.6490	-7.4048	0.0000 
2070.161	5.1855	19.6106	-7.5311	0.0000 
2070.185	5.3174	19.5831	-7.6355	0.0000 
2070.206	5.4327	19.5447	-7.7399	0.0000 
2070.282	5.5371	19.4458	-7.8662	0.0000 
2070.293	5.6470	19.3085	-8.0365	0.0000 
2070.293	5.7623	19.1437	-8.2507	0.0000 
2070.293	5.8557	18.9679	-8.4760	0.0000 
2070.300	5.9546	18.7921	-8.6792	0.0000 
2070.316	6.1359	18.6768	-8.7781	0.0000 
2070.344	6.3226	18.5834	-8.8000	0.0000 
2070.360	6.4215	18.5065	-8.8330	0.0000 
2070.382	6.3831	18.4241	-8.9868	0.0000 
2070.403	6.3171	18.3417	-9.2175	0.0000 
2070.425	6.2677	18.2867	-9.4592	0.0000 
2070.436	6.2457	18.2208	-9.6240	0.0000 
2070.515	6.2292	18.1274	-9.6735	0.0000 
2070.526	6.2292	18.0615	-9.6515	0.0000 
2070.526	6.2402	18.0835	-9.5966	0.0000 
2070.526	6.2567	18.1219	-9.5581	0.0000 
2070.534	6.2897	18.1659	-9.5197	0.0000 
2070.555	6.3226	18.1879	-9.4702	0.0000 
2070.574	6.3171	18.1824	-9.4043	0.0000 
2070.594	6.2732	18.1769	-9.3658	0.0000 
2070.614	6.2238	18.1659	-9.3329	0.0000 
2070.690	6.1469	18.1659	-9.3054	0.0000 
2070.700	6.0480	18.1604	-9.2615	0.0000 
2070.700	5.9326	18.1439	-9.1846	0.0000 
2070.700	5.8063	18.1219	-9.0802	0.0000 
2070.723	5.6964	18.1055	-8.9429	0.0000 
2070.735	5.6415	18.0890	-8.7506	0.0000 
2070.754	5.6415	18.0615	-8.4760	0.0000 
2070.773	5.7184	18.0231	-8.1134	0.0000 
2070.792	5.8722	17.9626	-7.7124	0.0000 
2070.812	6.0370	17.8967	-7.3279	0.0000 
2070.833	6.1798	17.8473	-7.0367	0.0000 
2070.923	6.3336	17.8198	-6.8060	0.0000 
2070.929	6.5094	17.8033	-6.5808	0.0000 
2070.929	6.7291	17.7649	-6.2952	0.0000 
2070.929	6.9818	17.7484	-5.9106	0.0000 
2070.935	7.2345	17.7539	-5.5316	0.0000 
2070.956	7.4103	17.8198	-5.2954	0.0000 
2070.979	7.5916	17.9462	-5.1910	0.0000 
2071.001	7.7289	18.1714	-5.2130	0.0000 
2071.012	7.8662	18.3746	-5.2295	0.0000 
2071.100	7.9706	18.4021	-5.0482	0.0000 
2071.111	8.0035	18.2813	-4.6747	0.0000 
2071.111	8.0365	18.1549	-4.2517	0.0000 
2071.111	8.0750	18.1384	-3.9606	0.0000 
2071.117	8.0475	18.2043	-3.8562	0.0000 
2071.143	7.9541	18.2867	-3.8397	0.0000 
2071.156	7.8058	18.3636	-3.8562	0.0000 
2071.176	7.6520	18.3856	-3.8397	0.0000 
2071.198	7.5531	18.3527	-3.8013	0.0000 
2071.219	7.5311	18.2922	-3.7848	0.0000 
2071.231	7.5531	18.2703	-3.8507	0.0000 
2071.250	7.5531	18.2922	-3.9771	0.0000 
2071.333	7.4652	18.3746	-4.1583	0.0000 
2071.339	7.3114	18.5065	-4.3616	0.0000 
2071.339	7.1191	18.6548	-4.5264	0.0000 
2071.339	6.9708	18.7976	-4.6417	0.0000 
2071.349	6.8610	18.9075	-4.7516	0.0000 
2071.369	6.7566	19.0118	-4.9274	0.0000 
2071.389	6.6467	19.0778	-5.1636	0.0000 
2071.409	6.5204	19.1107	-5.4163	0.0000 
2071.432	6.4270	19.1217	-5.6525	0.0000 
2071.509	6.3721	19.1162	-5.8612	0.0000 
2071.521	6.3281	19.1162	-6.0480	0.0000 
2071.521	6.2952	19.1217	-6.2347	0.0000 
2071.521	6.2567	19.1272	-6.4270	0.0000 
2071.529	6.1908	19.1272	-6.6412	0.0000 
2071.549	6.1139	19.1437	-6.8939	0.0000 
2071.569	6.0535	19.1492	-7.1576	0.0000 
2071.589	5.9930	19.0997	-7.4213	0.0000 
2071.610	5.9381	19.0009	-7.6904	0.0000 
2071.632	5.8942	18.8251	-7.9816	0.0000 
2071.656	5.8557	18.6218	-8.3112	0.0000 
2071.746	5.8228	18.3856	-8.6572	0.0000 
2071.752	5.7733	18.1165	-8.9594	0.0000 
2071.752	5.7843	17.8418	-9.1681	0.0000 
2071.752	5.8722	17.6495	-9.2780	0.0000 
2071.752	5.8997	17.5067	-9.3494	0.0000 
2071.768	5.7623	17.3969	-9.4977	0.0000 
2071.787	5.5591	17.3145	-9.7504	0.0000 
2071.807	5.4053	17.2375	-10.0085	0.0000 
2071.827	5.2899	17.1387	-10.2008	0.0000 
2071.847	5.1965	17.0563	-10.3052	0.0000 
2071.918	5.1251	17.0013	-10.3162	0.0000 
2071.929	5.0482	16.9794	-10.2612	0.0000 
2071.929	4.9384	16.9849	-10.2228	0.0000 
2071.935	4.8669	17.0068	-10.1953	0.0000 
2071.950	4.8615	17.0288	-10.1678	0.0000 
2071.972	4.8944	17.0233	-10.1129	0.0000 
2071.994	4.8834	16.9958	-10.0690	0.0000 
2072.014	4.8120	16.9629	-10.0470	0.0000 
2072.035	4.7131	16.9354	-10.0085	0.0000 
2072.046	4.6088	16.9135	-9.9097	0.0000 
2072.066	4.5428	16.8805	-9.7449	0.0000 
2072.149	4.4824	16.8585	-9.5416	0.0000 
2072.155	4.4440	16.8585	-9.3329	0.0000 
2072.155	4.4330	16.8860	-9.1187	0.0000 
2072.155	4.4165	16.9409	-8.8989	0.0000 
2072.165	4.4110	17.0178	-8.6462	0.0000 
2072.185	4.4440	17.1002	-8.3441	0.0000 
2072.206	4.5264	17.1716	-7.9706	0.0000 
2072.228	4.6472	17.2430	-7.5806	0.0000 
2072.249	4.7626	17.3309	-7.2235	0.0000 
2072.325	4.8724	17.4408	-6.9049	0.0000 
2072.335	4.9768	17.5836	-6.5973	0.0000 
2072.336	5.1306	17.7429	-6.2457	0.0000 
2072.336	5.3394	17.8857	-5.8008	0.0000 
2072.344	5.6195	18.0231	-5.2405	0.0000 
2072.364	5.8942	18.1604	-4.6912	0.0000 
2072.383	6.1359	18.3032	-4.2517	0.0000 
2072.404	6.3885	18.5889	-3.9825	0.0000 
2072.425	6.5808	18.9624	-3.8123	0.0000 
2072.445	6.7236	19.3030	-3.6310	0.0000 
2072.465	6.7896	19.5282	-3.3179	0.0000 
2072.558	6.7456	19.5337	-2.7301	0.0000 
2072.565	6.7126	19.4568	-2.0270	0.0000 
2072.565	6.6632	19.4183	-1.5381	0.0000 
2072.566	6.5369	19.4458	-1.3458	0.0000 
2072.566	6.3171	19.5447	-1.4282	0.0000 
2072.590	6.0919	19.6655	-1.5491	0.0000 
2072.612	5.9381	19.7314	-1.5546	0.0000 
2072.623	5.8777	19.7424	-1.4502	0.0000 
2072.642	5.8942	19.7314	-1.3623	0.0000 
2072.661	5.9381	19.7644	-1.3898	0.0000 
2072.733	5.9546	19.8468	-1.5326	0.0000 
2072.745	5.8832	19.9896	-1.7743	0.0000 
2072.745	5.7513	20.1599	-2.0599	0.0000 
2072.751	5.6195	20.3302	-2.3181	0.0000 
2072.765	5.5206	20.4675	-2.5433	0.0000 
2072.786	5.4108	20.5719	-2.7905	0.0000 
2072.808	5.3009	20.6433	-3.0872	0.0000 
2072.833	5.2185	20.6653	-3.4003	0.0000 
2072.841	5.1361	20.6378	-3.7299	0.0000 
2072.861	5.0922	20.5609	-4.0430	0.0000 
2072.882	5.0867	20.4620	-4.3341	0.0000 
2072.970	5.1086	20.3687	-4.6198	0.0000 
2072.976	5.1581	20.2917	-4.8999	0.0000 
2072.976	5.1965	20.2313	-5.1526	0.0000 
2072.976	5.2240	20.1709	-5.3888	0.0000 
2072.982	5.2460	20.1160	-5.6030	0.0000 
2073.001	5.2460	20.0446	-5.8228	0.0000 
2073.025	5.2185	19.8962	-6.0150	0.0000 
2073.045	5.1910	19.7040	-6.2183	0.0000 
2073.066	5.1141	19.5062	-6.4819	0.0000 
2073.146	5.0702	19.2975	-6.6962	0.0000 
2073.158	5.1416	19.1602	-6.7841	0.0000 
2073.158	5.2515	19.0997	-6.7896	0.0000 
2073.158	5.3009	19.0942	-6.7950	0.0000 
2073.164	5.2625	19.1437	-6.8994	0.0000 
2073.180	5.2020	19.2041	-7.1027	0.0000 
2073.200	5.1141	19.2426	-7.3608	0.0000 
2073.225	5.0372	19.2371	-7.5861	0.0000 
2073.245	4.9768	19.2096	-7.7124	0.0000 
2073.266	4.9384	19.1766	-7.7069	0.0000 
2073.290	4.8834	19.1986	-7.6794	0.0000 
2073.298	4.8120	19.2590	-7.6740	0.0000 
2073.380	4.7296	19.3250	-7.7014	0.0000 
2073.386	4.6637	19.3854	-7.7563	0.0000 
2073.386	4.5813	19.4348	-7.8003	0.0000 
2073.386	4.4824	19.4733	-7.8223	0.0000 
2073.399	4.3671	19.4843	-7.8113	0.0000 
2073.418	4.2133	19.4843	-7.7838	0.0000 
2073.438	4.0979	19.4952	-7.7509	0.0000 
2073.457	4.0045	19.5007	-7.6685	0.0000 
2073.479	3.9221	19.5007	-7.5366	0.0000 
2073.555	3.8507	19.5062	-7.3553	0.0000 
2073.567	3.7903	19.5117	-7.1411	0.0000 
2073.567	3.7903	19.5282	-6.8610	0.0000 
2073.567	3.8617	19.5612	-6.5204	0.0000 
2073.591	3.9935	19.5886	-6.1414	0.0000 
2073.597	4.1199	19.6106	-5.8118	0.0000 
2073.616	4.2023	19.6326	-5.6030	0.0000 
2073.637	4.2957	19.6710	-5.4712	0.0000 
2073.656	4.4385	19.6765	-5.2734	0.0000 
2073.732	4.6417	19.5886	-4.8669	0.0000 
2073.743	4.8560	19.4897	-4.3561	0.0000 
2073.743	5.1581	19.6545	-3.9056	0.0000 
2073.743	5.3284	20.0226	-3.6804	0.0000 
2073.766	5.4272	20.3412	-3.5211	0.0000 
2073.786	5.3888	20.5225	-3.3673	0.0000 
2073.796	5.3668	20.4840	-2.9388	0.0000 
2073.815	5.4602	20.3247	-2.2522	0.0000 
2073.836	5.5646	20.1929	-1.6150	0.0000 
2073.855	5.5646	20.1379	-1.2415	0.0000 
2073.876	5.4382	20.2039	-1.1646	0.0000 
2073.967	5.2679	20.3247	-1.2085	0.0000 
2073.974	5.0922	20.4346	-1.2250	0.0000 
2073.974	4.9713	20.4840	-1.1261	0.0000 
2073.974	4.9274	20.4620	-0.9448	0.0000 
2073.980	4.9493	20.4181	-0.7965	0.0000 
2074.000	4.9878	20.3906	-0.7416	0.0000 
2074.023	4.9768	20.3851	-0.7800	0.0000 
2074.044	4.9054	20.4126	-0.8789	0.0000 
2074.055	4.8285	20.4620	-0.9778	0.0000 
2074.144	4.7351	20.5005	-1.0437	0.0000 
2074.155	4.6307	20.5225	-1.1151	0.0000 
2074.155	4.5483	20.5334	-1.2195	0.0000 
2074.155	4.4714	20.5334	-1.3843	0.0000 
2074.161	4.3945	20.5060	-1.6260	0.0000 
2074.177	4.3286	20.4620	-1.9391	0.0000 
2074.197	4.2792	20.4016	-2.3126	0.0000 
2074.221	4.2737	20.3082	-2.6697	0.0000 
2074.243	4.3396	20.1874	-2.9553	0.0000 
2074.253	4.4275	20.0500	-3.2190	0.0000 
2074.273	4.4550	19.9072	-3.5431	0.0000 
2074.293	4.4055	19.7424	-3.9221	0.0000 
2074.370	4.2957	19.5557	-4.3286	0.0000 
2074.381	4.1803	19.3469	-4.7131	0.0000 
2074.382	4.2462	19.1382	-4.8889	0.0000 
2074.382	4.3890	19.0009	-4.9823	0.0000 
2074.402	4.4824	18.9624	-5.1141	0.0000 
2074.412	4.5044	18.9954	-5.3119	0.0000 
2074.432	4.3835	19.0503	-5.6360	0.0000 
2074.453	4.2737	19.0778	-6.0095	0.0000 
2074.472	4.2078	19.0503	-6.3556	0.0000 
2074.492	4.1254	18.9734	-6.6687	0.0000 
2074.512	4.0430	18.8910	-6.8884	0.0000 
2074.601	3.9825	18.8196	-6.9653	0.0000 
2074.608	3.8617	18.7921	-6.9598	0.0000 
2074.608	3.7573	18.8141	-6.9708	0.0000 
2074.608	3.6804	18.8470	-7.0093	0.0000 
2074.614	3.6584	18.8635	-7.0917	0.0000 
2074.633	3.6694	18.8635	-7.1960	0.0000 
2074.657	3.6694	18.8361	-7.2839	0.0000 
2074.678	3.6310	18.7701	-7.3499	0.0000 
2074.701	3.5651	18.6877	-7.3773	0.0000 
2074.780	3.4991	18.6108	-7.3334	0.0000 
2074.791	3.4387	18.5284	-7.2125	0.0000 
2074.791	3.3838	18.4515	-7.0587	0.0000 
2074.791	3.3234	18.3911	-6.8939	0.0000 
2074.798	3.2410	18.3527	-6.7072	0.0000 
2074.815	3.1476	18.3362	-6.4984	0.0000 
2074.836	3.0487	18.3252	-6.2402	0.0000 
2074.859	3.0048	18.3417	-5.9216	0.0000 
2074.870	3.0212	18.3691	-5.5481	0.0000 
2074.957	3.0762	18.4131	-5.1636	0.0000 
2074.969	3.1531	18.4790	-4.8010	0.0000 
2074.969	3.2355	18.6053	-4.4824	0.0000 
2074.969	3.3344	18.7592	-4.1473	0.0000 
2074.975	3.4717	18.9294	-3.7628	0.0000 
2074.989	3.6530	19.0942	-3.3014	0.0000 
2075.013	3.8562	19.2590	-2.7850	0.0000 
2075.032	4.0594	19.4458	-2.3291	0.0000 
2075.057	4.2682	19.6765	-1.9885	0.0000 
2075.077	4.4440	19.9677	-1.7303	0.0000 
2075.089	4.5703	20.2588	-1.5546	0.0000 
2075.108	4.6857	20.4730	-1.3623	0.0000 
2075.191	4.7351	20.5499	-1.0657	0.0000 
2075.197	4.6912	20.5005	-0.6372	0.0000 
2075.197	4.6417	20.4126	-0.1428	0.0000 
2075.197	4.5428	20.3851	0.2197	0.0000 
2075.207	4.3890	20.4346	0.3900	0.0000 
2075.227	4.1638	20.4895	0.4175	0.0000 
2075.247	3.8342	20.5115	0.3955	0.0000 
2075.267	3.4991	20.5060	0.3955	0.0000 
2075.289	3.2080	20.4456	0.4285	0.0000 
2075.365	2.9993	20.3522	0.4559	0.0000 
2075.376	2.8839	20.2423	0.4065	0.0000 
2075.376	2.8015	20.1379	0.3021	0.0000 
2075.377	2.7081	20.0665	0.1593	0.0000 
2075.387	2.5983	20.0171	0.0220	0.0000 
2075.406	2.4664	20.0061	-0.0989	0.0000 
2075.426	2.3236	20.0391	-0.2417	0.0000 
2075.446	2.2083	20.0885	-0.3900	0.0000 
2075.466	2.1259	20.1324	-0.5383	0.0000 
2075.488	2.0654	20.1489	-0.7141	0.0000 
2075.508	1.9995	20.1434	-0.9283	0.0000 
2075.601	1.9885	20.1324	-1.1810	0.0000 
2075.608	2.0215	20.0885	-1.4337	0.0000 
2075.608	2.1094	20.0281	-1.6699	0.0000 
2075.608	2.2467	19.9622	-1.8842	0.0000 
2075.609	2.4170	19.8798	-2.0984	0.0000 
2075.633	2.6038	19.7809	-2.3236	0.0000 
2075.645	2.7576	19.6545	-2.6147	0.0000 
2075.664	2.8619	19.4513	-2.9498	0.0000 
2075.685	2.9279	19.2096	-3.3508	0.0000 
2075.705	3.0267	18.9130	-3.7024	0.0000 
2075.778	3.3344	18.6053	-3.7683	0.0000 
2075.789	3.7299	18.3801	-3.6584	0.0000 
2075.790	4.0210	18.2373	-3.5156	0.0000 
2075.790	4.1254	18.2208	-3.4882	0.0000 
2075.810	4.1309	18.3032	-3.6200	0.0000 
2075.834	4.1748	18.3582	-3.8507	0.0000 
2075.853	4.1968	18.3691	-4.1473	0.0000 
2075.865	4.1528	18.3087	-4.4495	0.0000 
2075.884	4.1418	18.2098	-4.6362	0.0000 
2075.905	4.0979	18.1384	-4.6307	0.0000 
2075.924	3.9661	18.1000	-4.5374	0.0000 
2076.012	3.8013	18.0945	-4.4055	0.0000 
2076.020	3.6859	18.1055	-4.2847	0.0000 
2076.021	3.6694	18.1055	-4.1583	0.0000 
2076.021	3.7299	18.0835	-4.0375	0.0000 
2076.027	3.7738	18.0396	-3.9111	0.0000 
2076.045	3.7573	17.9681	-3.7573	0.0000 
2076.068	3.6749	17.8583	-3.5156	0.0000 
2076.091	3.5596	17.7429	-3.1805	0.0000 
2076.111	3.4772	17.6715	-2.8125	0.0000 
2076.190	3.4607	17.6495	-2.4170	0.0000 
2076.200	3.5046	17.6495	-1.9775	0.0000 
2076.201	3.5870	17.6550	-1.4832	0.0000 
2076.201	3.6804	17.6605	-0.9338	0.0000 
2076.207	3.7958	17.6605	-0.3241	0.0000 
2076.224	3.9716	17.6770	0.3296	0.0000 
2076.244	4.2297	17.7155	1.0437	0.0000 
2076.267	4.5483	17.7924	1.8073	0.0000 
2076.289	4.8010	17.8912	2.5433	0.0000 
2076.311	5.0098	17.9297	3.4222	0.0000 
2076.322	5.2405	18.1274	4.4879	0.0000 
2076.341	5.4163	18.5010	5.6580	0.0000 
2076.427	5.4712	18.7811	6.8774	0.0000 
2076.433	5.4163	18.9734	8.0255	0.0000 
2076.433	5.3009	19.1162	9.1022	0.0000 
2076.433	5.2020	19.1327	10.1733	0.0000 
2076.441	5.1196	19.0668	11.1896	0.0000 
2076.460	4.9658	18.9624	11.9641	0.0000 
2076.481	4.7296	18.8470	12.5189	0.0000 
2076.505	4.4659	18.7537	12.8925	0.0000 
2076.526	4.2242	18.6768	13.2330	0.0000 
2076.601	3.9990	18.6383	13.6230	0.0000 
2076.612	3.8562	18.6603	14.1119	0.0000 
2076.612	3.8068	18.7152	14.6503	0.0000 
2076.612	3.7738	18.8141	15.1282	0.0000 
2076.619	3.7024	18.9569	15.5182	0.0000 
2076.639	3.5870	19.1162	15.8203	0.0000 
2076.659	3.4552	19.2755	16.0785	0.0000 
2076.679	3.3618	19.4183	16.3531	0.0000 
2076.700	3.3838	19.5282	16.6058	0.0000 
2076.722	3.4717	19.5831	16.8530	0.0000 
2076.743	3.5760	19.5831	17.1167	0.0000 
2076.841	3.6914	19.6216	17.3749	0.0000 
2076.847	3.7958	19.6875	17.6550	0.0000 
2076.847	3.9111	19.7040	18.0231	0.0000 
2076.847	4.0704	19.6820	18.4460	0.0000 
2076.848	4.2133	19.6161	18.8251	0.0000 
2076.858	4.3231	19.5392	19.1052	0.0000 
2076.878	4.4110	19.5172	19.2975	0.0000 
2076.897	4.4495	19.5227	19.5062	0.0000 
2076.917	4.4769	19.5227	19.8193	0.0000 
2076.939	4.5428	19.5282	20.1819	0.0000 
2077.014	4.5758	19.5337	20.5499	0.0000 
2077.025	4.5813	19.5282	20.8685	0.0000 
2077.025	4.5374	19.5282	21.1212	0.0000 
2077.025	4.4934	19.5337	21.3794	0.0000 
2077.037	4.4934	19.5062	21.6870	0.0000 
2077.056	4.5264	19.4348	22.0221	0.0000 
2077.077	4.5319	19.3414	22.2913	0.0000 
2077.097	4.5154	19.2810	22.4670	0.0000 
2077.117	4.4879	19.2426	22.5934	0.0000 
2077.193	4.4659	19.2096	22.7362	0.0000 
2077.204	4.4385	19.1876	22.8571	0.0000 
2077.205	4.3945	19.1876	22.9340	0.0000 
2077.205	4.3451	19.2151	22.9779	0.0000 
2077.225	4.3121	19.2480	23.0273	0.0000 
2077.237	4.2572	19.2700	23.0933	0.0000 
2077.256	4.1803	19.2975	23.1647	0.0000 
2077.276	4.1144	19.3304	23.2086	0.0000 
2077.297	4.0759	19.3469	23.2581	0.0000 
2077.317	4.0540	19.3085	23.3020	0.0000 
2077.338	4.0320	19.2645	23.3295	0.0000 
2077.429	4.0045	19.1986	23.3679	0.0000 
2077.435	3.9771	19.1272	23.4174	0.0000 
2077.435	3.9331	19.0613	23.4613	0.0000 
2077.435	3.9111	19.0009	23.4998	0.0000 
2077.442	3.9221	18.9404	23.5162	0.0000 
2077.461	3.9221	18.8690	23.5162	0.0000 
2077.483	3.9111	18.8141	23.4613	0.0000 
2077.500	3.9056	18.7482	23.4174	0.0000 
2077.518	3.9111	18.6548	23.3789	0.0000 
2077.602	3.9331	18.5669	23.3240	0.0000 
2077.609	3.9606	18.4625	23.2635	0.0000 
2077.609	3.9771	18.3472	23.1812	0.0000 
2077.609	3.9825	18.2428	23.0878	0.0000 
2077.615	3.9825	18.1604	22.9999	0.0000 
2077.634	3.9880	18.0780	22.9285	0.0000 
2077.659	3.9990	17.9956	22.8625	0.0000 
2077.681	3.9935	17.9132	22.7911	0.0000 
2077.701	3.9880	17.8418	22.6978	0.0000 
2077.722	3.9661	17.7869	22.5824	0.0000 
2077.744	3.9496	17.7539	22.4725	0.0000 
2077.753	3.9441	17.7155	22.3846	0.0000 
2077.837	3.9606	17.6660	22.3187	0.0000 
2077.843	3.9661	17.6166	22.2418	0.0000 
2077.843	3.9606	17.5891	22.1320	0.0000 
2077.843	3.9496	17.5781	22.0111	0.0000 
2077.852	3.9441	17.5616	21.8958	0.0000 
2077.872	3.9331	17.5397	21.7969	0.0000 
2077.892	3.9276	17.5177	21.7035	0.0000 
2077.914	3.9331	17.4957	21.6046	0.0000 
2077.938	3.9441	17.4738	21.5002	0.0000 
2078.014	3.9331	17.4518	21.3959	0.0000 
2078.027	3.9056	17.4298	21.2970	0.0000 
2078.027	3.9001	17.4133	21.2091	0.0000 
2078.027	3.9111	17.4023	21.1212	0.0000 
2078.033	3.9056	17.3859	21.0388	0.0000 
2078.051	3.8947	17.3859	20.9290	0.0000 
2078.071	3.8782	17.3804	20.8246	0.0000 
2078.092	3.8672	17.3639	20.7312	0.0000 
2078.114	3.8452	17.3474	20.6378	0.0000 
2078.139	3.8342	17.3419	20.5444	0.0000 
2078.158	3.8287	17.3309	20.4565	0.0000 
2078.171	3.8342	17.3254	20.3851	0.0000 
2078.255	3.8397	17.3199	20.3082	0.0000 
2078.265	3.8452	17.3145	20.2368	0.0000 
2078.265	3.8452	17.3090	20.1489	0.0000 
2078.266	3.8342	17.3254	20.0336	0.0000 
2078.272	3.8232	17.3474	19.9017	0.0000 
2078.290	3.7903	17.3584	19.7644	0.0000 
2078.310	3.7573	17.3749	19.6106	0.0000 
2078.331	3.7299	17.3859	19.4238	0.0000 
2078.355	3.6859	17.4023	19.2041	0.0000 
2078.432	3.6365	17.4353	18.9240	0.0000 
2078.443	3.5815	17.4683	18.6108	0.0000 
2078.443	3.4882	17.4957	18.2483	0.0000 
2078.443	3.3618	17.5122	17.8418	0.0000 
2078.449	3.2300	17.5122	17.3914	0.0000 
2078.468	3.0981	17.4957	16.9080	0.0000 
2078.491	2.9938	17.4628	16.4026	0.0000 
2078.509	2.8949	17.4408	15.8862	0.0000 
2078.532	2.8180	17.4078	15.4028	0.0000 
2078.614	2.7301	17.3859	14.9030	0.0000 
2078.625	2.6532	17.4023	14.3811	0.0000 
2078.625	2.5928	17.4243	13.8538	0.0000 
2078.625	2.5433	17.4353	13.3099	0.0000 
2078.632	2.5104	17.4353	12.7496	0.0000 
2078.648	2.4994	17.4133	12.2498	0.0000 
2078.669	2.5159	17.3474	11.8268	0.0000 
2078.691	2.5598	17.2650	11.4697	0.0000 
2078.715	2.6642	17.1716	11.1676	0.0000 
2078.742	2.7686	17.0782	10.9039	0.0000 
2078.757	2.8619	17.0068	10.6732	0.0000 
2078.767	3.0048	16.9464	10.4755	0.0000 
2078.850	3.2245	16.8970	10.3217	0.0000 
2078.862	3.4662	16.8915	10.1788	0.0000 
2078.862	3.6804	16.9574	9.9811	0.0000 
2078.862	3.8562	17.0618	9.7339	0.0000 
2078.868	4.0265	17.2101	9.4537	0.0000 
2078.887	4.2352	17.3639	9.1901	0.0000 
2078.906	4.4659	17.4792	8.9539	0.0000 
2078.926	4.6362	17.5836	8.6792	0.0000 
2078.948	4.7296	17.7045	8.3496	0.0000 
2079.028	4.7845	17.8363	8.0365	0.0000 
2079.039	4.8724	17.9791	7.7728	0.0000 
2079.039	4.9329	18.1329	7.5092	0.0000 
2079.040	4.9438	18.3032	7.1851	0.0000 
2079.046	4.9219	18.4680	6.8335	0.0000 
2079.065	4.9164	18.5999	6.5149	0.0000 
2079.086	4.9219	18.6987	6.2018	0.0000 
2079.105	4.9219	18.8141	5.8557	0.0000 
2079.126	4.9164	18.9349	5.4932	0.0000 
2079.148	4.8944	19.0393	5.1471	0.0000 
2079.171	4.8340	19.1656	4.8065	0.0000 
2079.263	4.7791	19.3140	4.4989	0.0000 
2079.269	4.7296	19.4788	4.2352	0.0000 
2079.270	4.6472	19.6436	3.9716	0.0000 
2079.270	4.5374	19.8303	3.6749	0.0000 
2079.270	4.4055	20.0116	3.3728	0.0000 
2079.286	4.2627	20.1709	3.0652	0.0000 
2079.304	4.0869	20.3192	2.7466	0.0000 
2079.324	3.9001	20.4620	2.4170	0.0000 
2079.344	3.7299	20.5939	2.1039	0.0000 
2079.364	3.5651	20.7037	1.8127	0.0000 
2079.439	3.3948	20.8026	1.5161	0.0000 
2079.450	3.2190	20.8960	1.1865	0.0000 
2079.450	3.0432	20.9839	0.8624	0.0000 
2079.451	2.8949	21.0443	0.5603	0.0000 
2079.472	2.7411	21.0718	0.2417	0.0000 
2079.483	2.5928	21.0883	-0.1154	0.0000 
2079.503	2.4719	21.0828	-0.4999	0.0000 
2079.522	2.4005	21.0333	-0.8569	0.0000 
2079.542	2.3785	20.9344	-1.1755	0.0000 
2079.562	2.3950	20.7971	-1.4996	0.0000 
2079.582	2.4170	20.6543	-1.8787	0.0000 
2079.675	2.4500	20.5115	-2.2852	0.0000 
2079.681	2.4774	20.3467	-2.7081	0.0000 
2079.681	2.5378	20.1874	-3.1146	0.0000 
2079.681	2.6093	20.0171	-3.5101	0.0000 
2079.687	2.6532	19.8138	-3.8947	0.0000 
2079.709	2.6697	19.5996	-4.2407	0.0000 
2079.732	2.7356	19.3304	-4.4934	0.0000 
2079.741	2.9059	19.1107	-4.6527	0.0000 
2079.761	3.0817	19.0503	-4.8505	0.0000 
2079.781	3.1915	19.1107	-5.1636	0.0000 
2079.856	3.2300	19.2975	-5.6140	0.0000 
2079.867	3.2574	19.5062	-6.0699	0.0000 
2079.867	3.2520	19.6161	-6.4600	0.0000 
2079.867	3.2629	19.6106	-6.7786	0.0000 
2079.890	3.2739	19.5282	-7.0697	0.0000 
2079.911	3.2794	19.4843	-7.3718	0.0000 
2079.923	3.2959	19.4788	-7.6300	0.0000 
2079.942	3.2739	19.4952	-7.8333	0.0000 
2079.962	3.1805	19.5282	-8.0310	0.0000 
2079.981	3.0542	19.5667	-8.2343	0.0000 
2080.000	2.9553	19.6106	-8.4595	0.0000 
2080.093	2.8619	19.6490	-8.7286	0.0000 
2080.099	2.7301	19.6820	-9.0363	0.0000 
2080.099	2.5928	19.7040	-9.3439	0.0000 
2080.099	2.4829	19.6820	-9.5691	0.0000 
2080.105	2.4225	19.6436	-9.7119	0.0000 
2080.126	2.4005	19.5886	-9.7998	0.0000 
2080.147	2.3730	19.5612	-9.8767	0.0000 
2080.170	2.3511	19.5612	-9.9261	0.0000 
2080.179	2.3511	19.5776	-9.9152	0.0000 
2080.266	2.3840	19.5886	-9.8273	0.0000 
2080.273	2.4719	19.6051	-9.6790	0.0000 
2080.273	2.6257	19.6381	-9.4702	0.0000 
2080.273	2.7960	19.6765	-9.2560	0.0000 
2080.279	2.9553	19.7534	-9.0857	0.0000 
2080.299	3.1311	19.8688	-8.9319	0.0000 
2080.322	3.3398	19.9786	-8.7286	0.0000 
2080.342	3.6090	20.0555	-8.4430	0.0000 
2080.365	3.9276	20.1324	-8.1244	0.0000 
2080.444	4.2847	20.2478	-7.8223	0.0000 
2080.457	4.5978	20.4456	-7.6025	0.0000 
2080.457	4.7626	20.6927	-7.5421	0.0000 
2080.457	4.7516	20.9399	-7.6630	0.0000 
2080.463	4.7791	21.1212	-7.6740	0.0000 
2080.477	4.8779	21.1871	-7.3718	0.0000 
2080.498	4.9823	21.1707	-6.9269	0.0000 
2080.521	5.0427	21.1816	-6.6083	0.0000 
2080.543	5.0317	21.2476	-6.4984	0.0000 
2080.564	4.9219	21.3354	-6.5149	0.0000 
2080.588	4.7406	21.4178	-6.5479	0.0000 
2080.599	4.6033	21.4783	-6.5808	0.0000 
2080.680	4.5264	21.5002	-6.5973	0.0000 
2080.690	4.4934	21.5002	-6.5918	0.0000 
2080.691	4.4934	21.4783	-6.5698	0.0000 
2080.691	4.4604	21.4618	-6.5643	0.0000 
2080.697	4.4220	21.5057	-6.6138	0.0000 
2080.716	4.3945	21.5991	-6.6577	0.0000 
2080.738	4.3616	21.6980	-6.6687	0.0000 
2080.757	4.3231	21.7914	-6.6687	0.0000 
2080.778	4.2517	21.8573	-6.6742	0.0000 
2080.855	4.1418	21.9012	-6.7401	0.0000 
2080.866	4.0375	21.9397	-6.8994	0.0000 
2080.866	3.9716	21.9672	-7.1082	0.0000 
2080.866	3.9386	21.9836	-7.3499	0.0000 
2080.875	3.9386	21.9781	-7.5970	0.0000 
2080.895	3.9935	21.9672	-7.8113	0.0000 
2080.915	4.0869	21.9452	-7.9761	0.0000 
2080.937	4.1858	21.8903	-8.0804	0.0000 
2080.958	4.3286	21.7914	-8.1354	0.0000 
2080.979	4.4989	21.6705	-8.1903	0.0000 
2081.000	4.6307	21.5332	-8.2507	0.0000 
2081.078	4.7900	21.3464	-8.1793	0.0000 
2081.089	5.0262	21.1926	-7.9321	0.0000 
2081.089	5.0977	21.0992	-7.7399	0.0000 
2081.090	5.0043	20.9784	-7.6904	0.0000 
2081.096	4.8669	20.9015	-7.8552	0.0000 
2081.113	4.7736	20.8795	-8.1079	0.0000 
2081.133	4.7736	20.8740	-8.2727	0.0000 
2081.154	4.8065	20.8630	-8.2837	0.0000 
2081.174	4.7900	20.8575	-8.1958	0.0000 
2081.250	4.6802	20.8685	-8.0969	0.0000 
2081.262	4.5099	20.9235	-7.9871	0.0000 
2081.262	4.3671	20.9949	-7.8387	0.0000 
2081.262	4.2847	21.0553	-7.6740	0.0000 
2081.283	4.2297	21.0773	-7.5421	0.0000 
2081.292	4.1089	21.0718	-7.5311	0.0000 
2081.312	3.9331	21.0553	-7.5806	0.0000 
2081.332	3.7518	21.0114	-7.5861	0.0000 
2081.353	3.5980	20.9344	-7.5092	0.0000 
2081.373	3.5156	20.8521	-7.3608	0.0000 
2081.393	3.4827	20.7861	-7.1851	0.0000 
2081.487	3.4717	20.7477	-6.9983	0.0000 
2081.493	3.4827	20.7312	-6.7786	0.0000 
2081.493	3.4937	20.7367	-6.5533	0.0000 
2081.493	3.5266	20.7422	-6.3226	0.0000 
2081.493	3.5925	20.7697	-6.1084	0.0000 
2081.520	3.6749	20.8081	-5.8997	0.0000 
2081.542	3.7573	20.8575	-5.7239	0.0000 
2081.553	3.8452	20.9290	-5.5811	0.0000 
2081.572	3.9551	21.0333	-5.4547	0.0000 
2081.592	4.1309	21.1102	-5.2625	0.0000 
2081.665	4.3341	21.2091	-4.9988	0.0000 
2081.676	4.6033	21.3739	-4.7296	0.0000 
2081.676	4.8010	21.5771	-4.6088	0.0000 
2081.676	4.7900	21.7914	-4.7736	0.0000 
2081.698	4.7406	21.9781	-5.1251	0.0000 
2081.722	4.7571	22.0605	-5.3174	0.0000 
2081.730	4.7845	22.0660	-5.2515	0.0000 
2081.751	4.8010	22.0276	-5.1361	0.0000 
2081.771	4.7571	22.0056	-5.2020	0.0000 
2081.790	4.6582	22.0496	-5.5261	0.0000 
2081.810	4.4879	22.1045	-5.9216	0.0000 
2081.901	4.3616	22.1155	-6.2402	0.0000 
2081.908	4.3011	22.0715	-6.4874	0.0000 
2081.908	4.2682	22.0001	-6.7456	0.0000 
2081.908	4.2517	21.9507	-7.0532	0.0000 
2081.914	4.2352	21.9232	-7.3883	0.0000 
2081.933	4.2242	21.9342	-7.7124	0.0000 
2081.956	4.2627	21.9617	-8.0090	0.0000 
2081.978	4.3396	21.9617	-8.2562	0.0000 
2081.989	4.4055	21.9836	-8.5144	0.0000 
2082.075	4.4714	22.0551	-8.8330	0.0000 
2082.086	4.5154	22.1539	-9.2230	0.0000 
2082.087	4.5538	22.2253	-9.6844	0.0000 
2082.087	4.6033	22.2528	-10.1788	0.0000 
2082.093	4.6582	22.2693	-10.7227	0.0000 
2082.109	4.7571	22.3242	-11.2775	0.0000 
2082.134	4.8834	22.3846	-11.8158	0.0000 
2082.152	4.9933	22.4231	-12.3047	0.0000 
2082.173	5.0702	22.4011	-12.7441	0.0000 
2082.196	5.1526	22.2913	-13.0957	0.0000 
2082.218	5.2295	22.1320	-13.3923	0.0000 
2082.227	5.3229	21.9232	-13.6066	0.0000 
2082.309	5.5756	21.7749	-13.5956	0.0000 
2082.316	5.7294	21.7584	-13.5736	0.0000 
2082.316	5.6525	21.7914	-13.7109	0.0000 
2082.316	5.4602	21.8079	-14.0955	0.0000 
2082.327	5.2130	21.8024	-14.6173	0.0000 
2082.347	5.0977	21.7419	-15.0952	0.0000 
2082.366	5.1141	21.6431	-15.3973	0.0000 
2082.387	5.1691	21.5002	-15.5182	0.0000 
2082.409	5.1746	21.3629	-15.5457	0.0000 
2082.482	5.0482	21.3025	-15.5951	0.0000 
2082.493	4.8615	21.3245	-15.6665	0.0000 
2082.493	4.7241	21.3464	-15.6665	0.0000 
2082.493	4.6637	21.3245	-15.6720	0.0000 
2082.508	4.5703	21.3135	-15.7983	0.0000 
2082.525	4.4385	21.3190	-16.0071	0.0000 
2082.545	4.2847	21.2860	-16.1664	0.0000 
2082.565	4.1254	21.2256	-16.2653	0.0000 
2082.587	4.0320	21.1816	-16.3477	0.0000 
2082.606	3.9990	21.1652	-16.4136	0.0000 
2082.629	4.0155	21.1981	-16.4850	0.0000 
2082.723	4.0704	21.2531	-16.5179	0.0000 
2082.729	4.1364	21.3025	-16.5015	0.0000 
2082.729	4.1858	21.3464	-16.4740	0.0000 
2082.729	4.2572	21.4069	-16.4795	0.0000 
2082.729	4.3671	21.4838	-16.5234	0.0000 
2082.745	4.4714	21.5497	-16.6003	0.0000 
2082.765	4.5758	21.5991	-16.7267	0.0000 
2082.785	4.6747	21.6486	-16.8915	0.0000 
2082.805	4.8120	21.6321	-16.8915	0.0000 
2082.825	4.9933	21.5991	-16.7212	0.0000 
2082.896	5.1910	21.6101	-16.4850	0.0000 
2082.907	5.3009	21.6925	-16.3147	0.0000 
2082.908	5.2240	21.8188	-16.3367	0.0000 
2082.914	5.1196	21.8738	-16.4136	0.0000 
2082.928	5.0537	21.7914	-16.2653	0.0000 
2082.950	4.9988	21.5717	-15.8917	0.0000 
2082.972	4.8669	21.3190	-15.5676	0.0000 
2082.995	4.6857	21.0992	-15.4358	0.0000 
2083.004	4.4495	20.8960	-15.4468	0.0000 
2083.023	4.1858	20.6927	-15.4633	0.0000 
2083.043	3.9990	20.4510	-15.3699	0.0000 
2083.128	3.8727	20.1819	-15.2380	0.0000 
2083.134	3.7958	19.9512	-15.1501	0.0000 
2083.134	3.7134	19.7589	-15.1062	0.0000 
2083.134	3.6145	19.6161	-15.1172	0.0000 
2083.142	3.5651	19.5337	-15.1721	0.0000 
2083.162	3.5431	19.4788	-15.2380	0.0000 
2083.182	3.5376	19.4128	-15.3149	0.0000 
2083.204	3.5321	19.3579	-15.4193	0.0000 
2083.224	3.5321	19.3085	-15.5347	0.0000 
2083.300	3.5980	19.2426	-15.6335	0.0000 
2083.312	3.7189	19.1766	-15.7379	0.0000 
2083.312	3.8837	19.1382	-15.8807	0.0000 
2083.312	4.0485	19.1162	-16.0675	0.0000 
2083.322	4.2242	19.1382	-16.3037	0.0000 
2083.341	4.3890	19.1766	-16.5289	0.0000 
2083.362	4.4769	19.1327	-16.7212	0.0000 
2083.382	4.5648	19.0009	-16.8695	0.0000 
2083.401	4.6417	18.7866	-17.0563	0.0000 
2083.421	4.7736	18.5065	-17.1771	0.0000 
2083.443	4.9768	18.2648	-17.2156	0.0000 
2083.465	5.0482	18.1549	-17.3529	0.0000 
2083.535	4.9548	18.1329	-17.6276	0.0000 
2083.546	4.6967	18.1659	-18.1274	0.0000 
2083.547	4.5374	18.2153	-18.7262	0.0000 
2083.547	4.4824	18.2208	-19.1656	0.0000 
2083.566	4.4879	18.1604	-19.4128	0.0000 
2083.589	4.5483	18.0615	-19.5172	0.0000 
2083.601	4.5264	17.9736	-19.5392	0.0000 
2083.620	4.3890	17.9681	-19.5557	0.0000 
2083.639	4.2352	18.0341	-19.5831	0.0000 
2083.711	4.1089	18.1000	-19.5612	0.0000 
2083.722	4.0320	18.1274	-19.5062	0.0000 
2083.722	3.9551	18.1110	-19.4788	0.0000 
2083.729	3.8837	18.0615	-19.4897	0.0000 
2083.744	3.8013	17.9681	-19.4678	0.0000 
2083.765	3.7134	17.8418	-19.3469	0.0000 
2083.788	3.6749	17.7100	-19.0723	0.0000 
2083.809	3.6749	17.5781	-18.6932	0.0000 
2083.884	3.7024	17.4628	-18.2593	0.0000 
2083.895	3.7573	17.3859	-17.8088	0.0000 
2083.896	3.8232	17.3254	-17.3145	0.0000 
2083.896	3.8672	17.2760	-16.7926	0.0000 
2083.902	3.9276	17.2540	-16.2488	0.0000 
2083.918	4.0045	17.2375	-15.7104	0.0000 
2083.938	4.1034	17.2266	-15.2380	0.0000 
2083.959	4.2133	17.2156	-14.8096	0.0000 
2083.982	4.4110	17.1716	-14.3317	0.0000 
2084.005	4.6472	17.1112	-13.7549	0.0000 
2084.026	4.8999	17.0782	-13.1671	0.0000 
2084.037	5.1910	17.1277	-12.5684	0.0000 
2084.125	5.4053	17.2925	-12.0685	0.0000 
2084.137	5.5371	17.4792	-11.7224	0.0000 
2084.137	5.6140	17.5781	-11.3818	0.0000 
2084.137	5.6415	17.5616	-10.8875	0.0000 
2084.143	5.6580	17.4683	-10.1953	0.0000 
2084.158	5.6799	17.4188	-9.5142	0.0000 
2084.181	5.6635	17.4353	-9.0198	0.0000 
2084.202	5.6140	17.4628	-8.6737	0.0000 
2084.225	5.5261	17.4957	-8.4595	0.0000 
2084.304	5.4602	17.5012	-8.2837	0.0000 
2084.315	5.4327	17.4792	-8.0914	0.0000 
2084.315	5.4218	17.4573	-7.9321	0.0000 
2084.315	5.4327	17.4573	-7.8442	0.0000 
2084.322	5.4437	17.5287	-7.8442	0.0000 
2084.343	5.4272	17.6715	-7.9706	0.0000 
2084.360	5.3888	17.8528	-8.1628	0.0000 
2084.382	5.3394	18.0231	-8.3881	0.0000 
2084.404	5.2570	18.1769	-8.6298	0.0000 
2084.425	5.1636	18.2977	-8.8989	0.0000 
2084.437	5.0757	18.3856	-9.2340	0.0000 
2084.455	5.0098	18.4351	-9.6240	0.0000 
2084.538	4.9274	18.4296	-10.0909	0.0000 
2084.544	4.8560	18.4021	-10.6403	0.0000 
2084.544	4.8450	18.3527	-11.1896	0.0000 
2084.544	4.8724	18.2538	-11.6949	0.0000 
2084.554	4.9548	18.1439	-12.1454	0.0000 
2084.574	5.0757	18.0176	-12.5464	0.0000 
2084.594	5.1636	17.8528	-12.9529	0.0000 
2084.614	5.2515	17.6331	-13.3594	0.0000 
2084.637	5.3558	17.3804	-13.7604	0.0000 
2084.717	5.4492	17.0892	-14.1064	0.0000 
2084.728	5.6580	16.8420	-14.2438	0.0000 
2084.728	5.8392	16.7157	-14.2877	0.0000 
2084.728	5.8612	16.6663	-14.3646	0.0000 
2084.734	5.8008	16.6388	-14.5404	0.0000 
2084.754	5.6799	16.6553	-14.8535	0.0000 
2084.773	5.5920	16.6663	-15.1886	0.0000 
2084.793	5.5536	16.6443	-15.4083	0.0000 
2084.813	5.5591	16.6058	-15.4962	0.0000 
2084.833	5.5536	16.5839	-15.4248	0.0000 
2084.858	5.4932	16.6003	-15.2655	0.0000 
2084.945	5.4382	16.6718	-15.0458	0.0000 
2084.952	5.4382	16.7816	-14.8096	0.0000 
2084.953	5.4987	16.8970	-14.6008	0.0000 
2084.953	5.5481	17.0068	-14.4635	0.0000 
2084.959	5.5426	17.1222	-14.3921	0.0000 
2084.977	5.5042	17.2101	-14.2932	0.0000 
2084.998	5.4657	17.2540	-14.0900	0.0000 
2085.022	5.4382	17.2815	-13.7878	0.0000 
2085.031	5.4327	17.2980	-13.4418	0.0000 
2085.121	5.4382	17.3145	-13.0737	0.0000 
2085.127	5.4218	17.3419	-12.7057	0.0000 
2085.127	5.4163	17.3969	-12.3102	0.0000 
2085.127	5.4547	17.4738	-11.8817	0.0000 
2085.133	5.5206	17.5616	-11.4313	0.0000 
2085.152	5.5646	17.6605	-10.9973	0.0000 
2085.175	5.5865	17.7869	-10.6018	0.0000 
2085.197	5.6085	17.9022	-10.2228	0.0000 
2085.218	5.6305	18.0176	-9.8438	0.0000 
2085.230	5.6799	18.1549	-9.4373	0.0000 
2085.254	5.8063	18.2703	-8.9374	0.0000 
2085.270	6.0150	18.3142	-8.2178	0.0000 
2085.356	6.2292	18.3252	-7.4213	0.0000 
2085.362	6.4764	18.4296	-6.6907	0.0000 
2085.362	6.7346	18.6823	-6.1084	0.0000 
2085.362	6.8500	18.9899	-5.7458	0.0000 
2085.369	6.8280	19.2151	-5.5206	0.0000 
2085.389	6.7676	19.3140	-5.1855	0.0000 
2085.411	6.7676	19.2096	-4.4714	0.0000 
2085.432	6.8445	18.9734	-3.5431	0.0000 
2085.455	6.8445	18.7372	-2.7740	0.0000 
2085.529	6.7676	18.5944	-2.2797	0.0000 
2085.539	6.6138	18.5394	-2.0105	0.0000 
2085.539	6.4160	18.4845	-1.8457	0.0000 
2085.540	6.2567	18.3856	-1.6534	0.0000 
2085.548	6.1359	18.2208	-1.4337	0.0000 
2085.570	6.0974	18.0505	-1.2085	0.0000 
2085.589	6.0590	17.9132	-1.0272	0.0000 
2085.609	5.9985	17.8528	-0.9174	0.0000 
2085.629	5.9436	17.8308	-0.8240	0.0000 
2085.649	5.8777	17.8363	-0.7526	0.0000 
2085.672	5.8118	17.8693	-0.7306	0.0000 
2085.763	5.7184	17.9022	-0.7526	0.0000 
2085.769	5.5920	17.9352	-0.8405	0.0000 
2085.769	5.4547	17.9517	-0.9778	0.0000 
2085.769	5.3613	17.9572	-1.1371	0.0000 
2085.769	5.3229	17.9407	-1.3074	0.0000 
2085.798	5.3339	17.9022	-1.5051	0.0000 
2085.816	5.3888	17.8583	-1.7413	0.0000 
2085.829	5.4602	17.8143	-1.9720	0.0000 
2085.847	5.5096	17.7319	-2.1698	0.0000 
2085.936	5.5591	17.5616	-2.3401	0.0000 
2085.942	5.6195	17.3859	-2.6038	0.0000 
2085.942	5.6415	17.2046	-2.9993	0.0000 
2085.942	5.7733	17.0068	-3.3069	0.0000 
2085.949	5.9216	16.8530	-3.5376	0.0000 
2085.969	5.9546	16.7322	-3.7463	0.0000 
2085.991	5.7843	16.6388	-4.0375	0.0000 
2086.014	5.6030	16.5839	-4.4000	0.0000 
2086.026	5.5481	16.5839	-4.7845	0.0000 
2086.046	5.5206	16.6168	-5.1526	0.0000 
2086.066	5.5042	16.6443	-5.4437	0.0000 
2086.086	5.4492	16.6663	-5.6140	0.0000 
2086.161	5.3119	16.7047	-5.6689	0.0000 
2086.173	5.1306	16.7651	-5.5865	0.0000 
2086.174	4.9658	16.8091	-5.4218	0.0000 
2086.174	4.8450	16.8585	-5.2899	0.0000 
2086.194	4.7461	16.9135	-5.2405	0.0000 
2086.205	4.6747	16.9629	-5.2734	0.0000 
2086.225	4.5923	16.9849	-5.2789	0.0000 
2086.245	4.5099	16.9354	-5.1636	0.0000 
2086.265	4.4440	16.8585	-4.9548	0.0000 
2086.338	4.4385	16.7816	-4.6252	0.0000 
2086.349	4.4934	16.7267	-4.2517	0.0000 
2086.349	4.5538	16.7047	-3.8617	0.0000 
2086.355	4.6088	16.7322	-3.4772	0.0000 
2086.371	4.6582	16.7926	-3.0817	0.0000 
2086.392	4.6912	16.8365	-2.6312	0.0000 
2086.404	4.7131	16.8750	-2.1368	0.0000 
2086.423	4.7571	16.9080	-1.6040	0.0000 
2086.443	4.8340	16.9354	-1.0712	0.0000 
2086.463	4.9274	16.9904	-0.5493	0.0000 
2086.483	5.0537	17.0837	-0.0165	0.0000 
2086.571	5.2130	17.1826	0.5768	0.0000 
2086.578	5.4492	17.2815	1.2854	0.0000 
2086.578	5.7129	17.4078	2.0544	0.0000 
2086.578	6.0150	17.6001	2.7905	0.0000 
2086.584	6.2842	17.9187	3.3618	0.0000 
2086.605	6.3611	18.2758	3.7079	0.0000 
2086.626	6.2897	18.5999	3.8782	0.0000 
2086.647	6.2347	18.7372	4.2242	0.0000 
2086.671	6.2347	18.5999	4.9548	0.0000 
2086.748	6.2732	18.4186	5.6854	0.0000 
2086.761	6.2402	18.3032	6.1084	0.0000 
2086.761	6.1798	18.2593	6.3226	0.0000 
2086.761	6.1139	18.2813	6.3776	0.0000 
2086.767	6.0699	18.2813	6.4490	0.0000 
2086.781	6.0919	18.2153	6.6138	0.0000 
2086.804	6.1963	18.1219	6.8060	0.0000 
2086.824	6.3336	18.0286	6.9434	0.0000 
2086.848	6.4215	17.9517	6.9873	0.0000 
2086.871	6.4435	17.9352	6.8994	0.0000 
2086.880	6.4050	17.9736	6.7236	0.0000 
2086.901	6.3446	18.0176	6.5094	0.0000 
2086.983	6.2732	18.0450	6.2897	0.0000 
2086.989	6.1688	18.0670	6.0535	0.0000 
2086.989	6.0645	18.0835	5.8008	0.0000 
2086.989	5.9821	18.0890	5.5151	0.0000 
2087.000	5.9381	18.0780	5.1855	0.0000 
2087.021	5.9161	18.0615	4.7900	0.0000 
2087.041	5.9436	18.0560	4.3176	0.0000 
2087.062	6.0095	18.0505	3.8123	0.0000 
2087.082	6.1084	18.0450	3.3234	0.0000 
2087.161	6.2183	18.0176	2.8674	0.0000 
2087.172	6.3226	17.9626	2.4445	0.0000 
2087.172	6.4380	17.8308	2.0380	0.0000 
2087.172	6.5369	17.6880	1.6205	0.0000 
2087.180	6.5808	17.5397	1.1700	0.0000 
2087.200	6.6632	17.3749	0.8020	0.0000 
2087.220	6.8115	17.2815	0.5219	0.0000 
2087.239	6.8939	17.2321	0.2527	0.0000 
2087.261	6.8719	17.2321	-0.0989	0.0000 
2087.281	6.7511	17.2815	-0.5878	0.0000 
2087.303	6.6412	17.3364	-1.1371	0.0000 
2087.392	6.5918	17.3639	-1.6205	0.0000 
2087.399	6.5643	17.3529	-1.9995	0.0000 
2087.399	6.5369	17.3364	-2.2797	0.0000 
2087.399	6.4435	17.3474	-2.4500	0.0000 
2087.399	6.3171	17.4078	-2.5488	0.0000 
2087.425	6.2238	17.4902	-2.5928	0.0000 
2087.447	6.1908	17.5562	-2.5873	0.0000 
2087.468	6.1853	17.6056	-2.6093	0.0000 
2087.487	6.1469	17.6605	-2.6862	0.0000 
2087.505	6.0590	17.7045	-2.7960	0.0000 
2087.521	5.9271	17.7264	-2.8674	0.0000 
2087.542	5.8282	17.7429	-2.8564	0.0000 
2087.632	5.7568	17.7484	-2.7631	0.0000 
2087.638	5.7129	17.7484	-2.6093	0.0000 
2087.638	5.6799	17.7759	-2.4170	0.0000 
2087.638	5.6415	17.8253	-2.1973	0.0000 
2087.638	5.5920	17.9132	-1.9446	0.0000 
2087.664	5.5536	18.0286	-1.6809	0.0000 
2087.687	5.5426	18.1439	-1.4117	0.0000 
2087.697	5.5536	18.2703	-1.1810	0.0000 
2087.716	5.5371	18.3856	-1.0272	0.0000 
2087.737	5.5042	18.4900	-0.9064	0.0000 
2087.807	5.5261	18.5944	-0.7855	0.0000 
2087.818	5.6085	18.6493	-0.5933	0.0000 
2087.819	5.7513	18.6603	-0.3131	0.0000 
2087.825	5.9106	18.6438	-0.0275	0.0000 
2087.840	6.0480	18.6603	0.1648	0.0000 
2087.861	6.1633	18.7537	0.2362	0.0000 
2087.882	6.2183	18.8690	0.2362	0.0000 
2087.904	6.1908	18.8910	0.2032	0.0000 
2087.979	6.0809	18.8196	0.1483	0.0000 
2087.990	5.9491	18.7097	0.1813	0.0000 
2087.990	5.8777	18.5504	0.4175	0.0000 
2087.990	5.8337	18.4131	0.6976	0.0000 
2087.996	5.7239	18.3527	0.8350	0.0000 
2088.014	5.5591	18.3417	0.8295	0.0000 
2088.034	5.3394	18.3362	0.7745	0.0000 
2088.056	5.1196	18.3142	0.7251	0.0000 
2088.078	4.9274	18.2977	0.6317	0.0000 
2088.152	4.7736	18.2758	0.4889	0.0000 
2088.163	4.6857	18.2318	0.3241	0.0000 
2088.164	4.6362	18.1879	0.1483	0.0000 
2088.164	4.5868	18.1659	-0.0275	0.0000 
2088.174	4.5428	18.1604	-0.2032	0.0000 
2088.193	4.5044	18.1714	-0.3680	0.0000 
2088.213	4.4714	18.1879	-0.5328	0.0000 
2088.233	4.4220	18.2208	-0.7306	0.0000 
2088.256	4.3561	18.2758	-0.9833	0.0000 
2088.276	4.3011	18.3307	-1.2964	0.0000 
2088.298	4.2737	18.3636	-1.6315	0.0000 
2088.380	4.2627	18.3691	-2.0215	0.0000 
2088.391	4.2517	18.3636	-2.4500	0.0000 
2088.391	4.2957	18.3582	-2.8729	0.0000 
2088.392	4.3451	18.3362	-3.2520	0.0000 
2088.398	4.3945	18.2483	-3.5706	0.0000 
2088.413	4.4165	18.1439	-3.9001	0.0000 
2088.437	4.4275	18.0231	-4.2792	0.0000 
2088.458	4.4934	17.8638	-4.5538	0.0000 
2088.481	4.7021	17.7319	-4.6362	0.0000 
2088.556	4.8615	17.6715	-4.6802	0.0000 
2088.567	4.9054	17.6990	-4.8120	0.0000 
2088.567	4.7791	17.8198	-5.1746	0.0000 
2088.567	4.6802	17.9626	-5.6580	0.0000 
2088.574	4.6582	18.0396	-6.1304	0.0000 
2088.591	4.6307	18.0450	-6.5259	0.0000 
2088.611	4.6252	18.0286	-6.8500	0.0000 
2088.632	4.5868	17.9956	-7.0807	0.0000 
2088.655	4.4714	17.9956	-7.1906	0.0000 
2088.677	4.3506	18.0450	-7.2565	0.0000 
2088.700	4.2517	18.1110	-7.2729	0.0000 
2088.721	4.2188	18.1824	-7.3059	0.0000 
2088.791	4.1913	18.2538	-7.4213	0.0000 
2088.802	4.1418	18.3307	-7.6080	0.0000 
2088.802	4.0485	18.3801	-7.8003	0.0000 
2088.802	3.9551	18.3966	-7.8992	0.0000 
2088.810	3.8947	18.3856	-7.8607	0.0000 
2088.830	3.8947	18.3746	-7.7344	0.0000 
2088.850	3.9221	18.4076	-7.5861	0.0000 
2088.871	3.9661	18.4845	-7.4597	0.0000 
2088.890	3.9990	18.5834	-7.3553	0.0000 
2088.967	4.0320	18.6987	-7.2510	0.0000 
2088.977	4.0759	18.7976	-7.1356	0.0000 
2088.978	4.1089	18.8745	-7.0367	0.0000 
2088.978	4.1144	18.9514	-6.9763	0.0000 
2088.990	4.1199	19.0393	-6.9489	0.0000 
2089.009	4.1913	19.1547	-6.9104	0.0000 
2089.029	4.3451	19.2645	-6.7566	0.0000 
2089.049	4.6252	19.3304	-6.3885	0.0000 
2089.069	4.9329	19.4019	-5.9601	0.0000 
2089.090	5.2295	19.4952	-5.6415	0.0000 
2089.108	5.5646	19.6545	-5.4163	0.0000 
2089.202	5.7678	19.8907	-5.3448	0.0000 
2089.208	5.8228	20.1270	-5.4272	0.0000 
2089.208	5.7513	20.2808	-5.5975	0.0000 
2089.208	5.6689	20.3137	-5.5756	0.0000 
2089.208	5.6580	20.1709	-5.1965	0.0000 
2089.235	5.6360	19.9731	-4.7791	0.0000 
2089.256	5.5371	19.8303	-4.5868	0.0000 
2089.269	5.3833	19.7809	-4.6143	0.0000 
2089.287	5.1416	19.7644	-4.7296	0.0000 
2089.376	4.8889	19.7479	-4.8450	0.0000 
2089.382	4.6967	19.7314	-4.9603	0.0000 
2089.382	4.5923	19.7095	-5.0702	0.0000 
2089.382	4.5374	19.6930	-5.2240	0.0000 
2089.388	4.4879	19.6875	-5.3943	0.0000 
2089.408	4.4604	19.6765	-5.5371	0.0000 
2089.430	4.4330	19.6710	-5.6635	0.0000 
2089.453	4.4165	19.6655	-5.7733	0.0000 
2089.475	4.3945	19.6600	-5.8722	0.0000 
2089.487	4.3451	19.6655	-5.9930	0.0000 
2089.506	4.2902	19.6765	-6.1633	0.0000 
2089.526	4.2297	19.6765	-6.3556	0.0000 
2089.611	4.2023	19.6490	-6.5479	0.0000 
2089.617	4.2242	19.6051	-6.7291	0.0000 
2089.617	4.3121	19.5612	-6.8939	0.0000 
2089.618	4.4495	19.5172	-7.0148	0.0000 
2089.625	4.6143	19.4678	-7.0917	0.0000 
2089.651	4.7571	19.4128	-7.1521	0.0000 
2089.667	4.8669	19.3469	-7.2235	0.0000 
2089.689	4.9603	19.2426	-7.3059	0.0000 
2089.711	5.0153	19.1382	-7.4268	0.0000 
2089.788	5.0647	19.0173	-7.5696	0.0000 
2089.799	5.2075	18.8965	-7.6300	0.0000 
2089.799	5.3668	18.8635	-7.6685	0.0000 
2089.799	5.4987	18.9185	-7.7454	0.0000 
2089.805	5.5261	19.0338	-7.9651	0.0000 
2089.824	5.3998	19.1492	-8.3551	0.0000 
2089.845	5.2789	19.2261	-8.8000	0.0000 
2089.864	5.2515	19.2426	-9.1626	0.0000 
2089.888	5.2679	19.1931	-9.3329	0.0000 
2089.910	5.2679	19.0942	-9.3713	0.0000 
2089.931	5.2130	19.0393	-9.3604	0.0000 
2090.023	5.0812	19.0613	-9.3604	0.0000 
2090.030	4.9274	19.1492	-9.3713	0.0000 
2090.030	4.7845	19.2590	-9.3933	0.0000 
2090.030	4.6802	19.3359	-9.4427	0.0000 
2090.031	4.5868	19.4183	-9.6185	0.0000 
2090.043	4.5044	19.5062	-9.8547	0.0000 
2090.069	4.4275	19.5282	-10.0085	0.0000 
2090.083	4.3945	19.5117	-10.0415	0.0000 
2090.103	4.3945	19.4843	-9.9701	0.0000 
2090.123	4.4440	19.4733	-9.8492	0.0000 
2090.194	4.5154	19.4678	-9.7064	0.0000 
2090.205	4.5538	19.4733	-9.5801	0.0000 
2090.206	4.5813	19.5062	-9.4592	0.0000 
2090.212	4.6362	19.5557	-9.3054	0.0000 
2090.227	4.6912	19.5996	-9.1187	0.0000 
2090.248	4.7351	19.6436	-8.9374	0.0000 
2090.270	4.7900	19.7095	-8.7836	0.0000 
2090.292	4.8669	19.7919	-8.6572	0.0000 
2090.304	4.9768	19.8633	-8.5034	0.0000 
2090.322	5.1526	19.9402	-8.3002	0.0000 
2090.341	5.4053	20.0061	-8.0200	0.0000 
2090.429	5.6909	20.0446	-7.6465	0.0000 
2090.435	5.9271	20.0446	-7.2510	0.0000 
2090.435	6.1743	20.0720	-6.8994	0.0000 
2090.435	6.3446	20.2313	-6.6962	0.0000 
2090.442	6.4215	20.4401	-6.6577	0.0000 
2090.463	6.4215	20.6104	-6.7511	0.0000 
2090.483	6.4050	20.6763	-6.7950	0.0000 
2090.505	6.4709	20.6433	-6.5369	0.0000 
2090.528	6.5533	20.5005	-6.0150	0.0000 
2090.607	6.5479	20.3522	-5.5371	0.0000 
2090.620	6.4764	20.2917	-5.3229	0.0000 
2090.620	6.3501	20.2808	-5.2625	0.0000 
2090.620	6.2402	20.2698	-5.2515	0.0000 
2090.626	6.1853	20.2203	-5.2240	0.0000 
2090.640	6.1853	20.1489	-5.2130	0.0000 
2090.662	6.2457	20.0885	-5.2405	0.0000 
2090.687	6.3116	20.0610	-5.2954	0.0000 
2090.706	6.3666	20.0500	-5.3613	0.0000 
2090.721	6.3885	20.0500	-5.4712	0.0000 
2090.739	6.3940	20.0720	-5.6085	0.0000 
2090.759	6.3721	20.0940	-5.7294	0.0000 
2090.835	6.3171	20.1050	-5.8173	0.0000 
2090.845	6.2457	20.1215	-5.9381	0.0000 
2090.846	6.1633	20.1599	-6.0974	0.0000 
2090.846	6.0645	20.1984	-6.2897	0.0000 
2090.868	5.9875	20.2148	-6.4764	0.0000 
2090.879	5.9656	20.2094	-6.6248	0.0000 
2090.898	5.9985	20.1929	-6.7291	0.0000 
2090.919	6.0645	20.1874	-6.8115	0.0000 
2090.937	6.1578	20.2148	-6.8829	0.0000 
2091.011	6.2567	20.2423	-6.9653	0.0000 
2091.023	6.3281	20.2478	-7.0807	0.0000 
2091.023	6.3611	20.2258	-7.2290	0.0000 
2091.030	6.3885	20.1379	-7.3993	0.0000 
2091.045	6.4215	19.9512	-7.6080	0.0000 
2091.065	6.5094	19.7260	-7.8333	0.0000 
2091.078	6.6083	19.5282	-8.0750	0.0000 
2091.097	6.6852	19.3634	-8.3167	0.0000 
2091.117	6.7291	19.2426	-8.5144	0.0000 
2091.136	6.8335	19.1931	-8.6023	0.0000 
2091.156	6.8829	19.1656	-8.6078	0.0000 
2091.244	6.8390	19.1327	-8.7122	0.0000 
2091.250	6.7456	19.1821	-9.0582	0.0000 
2091.250	6.6522	19.2810	-9.4867	0.0000 
2091.250	6.5588	19.3909	-9.8877	0.0000 
2091.258	6.4874	19.4952	-10.1788	0.0000 
2091.278	6.4050	19.5721	-10.3217	0.0000 
2091.302	6.2787	19.6765	-10.3986	0.0000 
2091.323	6.1578	19.8083	-10.4700	0.0000 
2091.345	6.0645	19.9622	-10.5743	0.0000 
2091.420	5.9930	20.0995	-10.7007	0.0000 
2091.431	5.9106	20.1984	-10.8160	0.0000 
2091.431	5.8063	20.2588	-10.9094	0.0000 
2091.432	5.6909	20.2972	-10.9808	0.0000 
2091.438	5.6360	20.3192	-10.9863	0.0000 
2091.455	5.6305	20.3302	-10.9314	0.0000 
2091.475	5.6195	20.3467	-10.8875	0.0000 
2091.497	5.5426	20.4071	-10.8984	0.0000 
2091.520	5.4382	20.5115	-10.9259	0.0000 
2091.540	5.3668	20.6268	-10.8765	0.0000 
2091.562	5.3448	20.7312	-10.7391	0.0000 
2091.584	5.4053	20.8246	-10.5359	0.0000 
2091.657	5.4877	20.8795	-10.3107	0.0000 
2091.667	5.5701	20.9290	-10.1129	0.0000 
2091.667	5.6689	20.9839	-9.9701	0.0000 
2091.668	5.7788	21.0498	-9.8492	0.0000 
2091.674	5.9656	21.1102	-9.6680	0.0000 
2091.694	6.2018	21.1707	-9.3988	0.0000 
2091.714	6.4050	21.2256	-9.1626	0.0000 
2091.734	6.6632	21.3300	-8.9209	0.0000 
2091.756	6.8390	21.5222	-8.7341	0.0000 
2091.830	6.8939	21.7145	-8.6847	0.0000 
2091.842	6.8335	21.8518	-8.7946	0.0000 
2091.842	6.7621	21.8683	-8.8275	0.0000 
2091.842	6.7786	21.7310	-8.6023	0.0000 
2091.862	6.8390	21.5057	-8.3167	0.0000 
2091.873	6.8335	21.2970	-8.2013	0.0000 
2091.892	6.7401	21.1981	-8.2672	0.0000 
2091.912	6.5643	21.1761	-8.4320	0.0000 
2091.932	6.4160	21.1597	-8.5693	0.0000 
2091.955	6.2842	21.1212	-8.6957	0.0000 
2091.974	6.2457	21.0883	-8.8660	0.0000 
2092.055	6.2622	21.0773	-9.0692	0.0000 
2092.066	6.2402	21.0608	-9.3164	0.0000 
2092.066	6.1578	21.0553	-9.6185	0.0000 
2092.066	6.0370	21.1047	-9.9756	0.0000 
2092.072	5.9161	21.1761	-10.3271	0.0000 
2092.091	5.7898	21.2091	-10.6403	0.0000 
2092.111	5.6525	21.2146	-10.9479	0.0000 
2092.131	5.4932	21.2091	-11.2775	0.0000 
2092.155	5.3339	21.1871	-11.6071	0.0000 
2092.232	5.2185	21.1487	-11.9202	0.0000 
2092.243	5.1581	21.0938	-12.2168	0.0000 
2092.243	5.1746	21.0004	-12.4640	0.0000 
2092.243	5.2295	20.9015	-12.6617	0.0000 
2092.251	5.2734	20.8081	-12.8760	0.0000 
2092.270	5.3284	20.7422	-13.1122	0.0000 
2092.290	5.3888	20.7037	-13.3759	0.0000 
2092.310	5.4602	20.6653	-13.6230	0.0000 
2092.331	5.5151	20.5939	-13.8702	0.0000 
2092.353	5.5811	20.4675	-14.0955	0.0000 
2092.375	5.6909	20.2808	-14.2987	0.0000 
2092.468	5.7843	20.0610	-14.4745	0.0000 
2092.483	5.9491	19.8523	-14.5569	0.0000 
2092.483	6.1743	19.7369	-14.5953	0.0000 
2092.483	6.3721	19.7040	-14.6558	0.0000 
2092.483	6.4545	19.7205	-14.8480	0.0000 
2092.492	6.4160	19.7699	-15.2161	0.0000 
2092.508	6.3226	19.8193	-15.7159	0.0000 
2092.530	6.2732	19.8358	-16.1774	0.0000 
2092.548	6.2512	19.7644	-16.4520	0.0000 
2092.571	6.2512	19.6765	-16.6278	0.0000 
2092.644	6.2128	19.6326	-16.7267	0.0000 
2092.655	6.0974	19.6490	-16.8256	0.0000 
2092.656	5.9491	19.7150	-16.9739	0.0000 
2092.656	5.8282	19.7809	-17.1277	0.0000 
2092.678	5.7239	19.8358	-17.2650	0.0000 
2092.689	5.6415	19.8798	-17.4078	0.0000 
2092.708	5.5591	19.8907	-17.5232	0.0000 
2092.728	5.4877	19.8798	-17.5891	0.0000 
2092.748	5.4767	19.8468	-17.5781	0.0000 
2092.769	5.5096	19.7974	-17.4738	0.0000 
2092.788	5.5316	19.7589	-17.3474	0.0000 
2092.878	5.5481	19.7369	-17.2156	0.0000 
2092.884	5.5591	19.7260	-17.0288	0.0000 
2092.884	5.6305	19.7095	-16.7432	0.0000 
2092.884	5.7404	19.6985	-16.3641	0.0000 
2092.890	5.8777	19.6985	-15.9467	0.0000 
2092.910	6.0095	19.7095	-15.6006	0.0000 
2092.932	6.1084	19.7644	-15.4028	0.0000 
2092.956	6.2567	19.8578	-15.2490	0.0000 
2092.977	6.5149	19.9127	-14.9744	0.0000 
2093.054	6.8665	19.8688	-14.5020	0.0000 
2093.065	7.1960	19.7974	-14.0186	0.0000 
2093.065	7.5696	19.8303	-13.5681	0.0000 
2093.065	7.8882	20.0446	-13.1836	0.0000 
2093.071	8.0640	20.3577	-12.9474	0.0000 
2093.087	8.0969	20.6158	-12.7881	0.0000 
2093.110	7.9321	20.7092	-12.5848	0.0000 
2093.144	7.7728	20.6982	-12.1893	0.0000 
2093.157	7.6849	20.6158	-11.6235	0.0000 
2093.231	7.5366	20.5225	-11.1566	0.0000 
2093.242	7.3279	20.4840	-10.9259	0.0000 
2093.242	7.0038	20.5225	-10.8984	0.0000 
2093.242	6.6742	20.5884	-10.9259	0.0000 
2093.249	6.4215	20.5884	-10.8545	0.0000 
2093.264	6.3116	20.5170	-10.6842	0.0000 
2093.286	6.3336	20.4126	-10.4810	0.0000 
2093.305	6.3721	20.3192	-10.2942	0.0000 
2093.328	6.3611	20.2753	-10.1733	0.0000 
2093.348	6.3226	20.2863	-10.1019	0.0000 
2093.372	6.2622	20.3247	-10.0250	0.0000 
2093.393	6.2183	20.3687	-9.9426	0.0000 
2093.463	6.1578	20.3961	-9.8767	0.0000 
2093.474	6.0809	20.4016	-9.8492	0.0000 
2093.474	5.9821	20.3851	-9.8767	0.0000 
2093.474	5.9161	20.3467	-9.9371	0.0000 
2093.483	5.8942	20.2588	-10.0031	0.0000 
2093.503	5.8942	20.1324	-10.0690	0.0000 
2093.523	5.9491	20.0226	-10.1514	0.0000 
2093.543	6.0260	19.9182	-10.1953	0.0000 
2093.563	6.0864	19.8138	-10.1953	0.0000 
2093.636	6.1029	19.6930	-10.2118	0.0000 
2093.647	6.1029	19.5172	-10.2832	0.0000 
2093.647	6.1304	19.3085	-10.4095	0.0000 
2093.647	6.1523	19.0338	-10.5908	0.0000 
2093.669	6.3391	18.7592	-10.6677	0.0000 
2093.690	6.5698	18.5944	-10.6677	0.0000 
2093.704	6.6907	18.4790	-10.6732	0.0000 
2093.722	6.6412	18.3856	-10.8215	0.0000 
2093.741	6.4819	18.3801	-11.1566	0.0000 
2093.761	6.3831	18.3911	-11.5137	0.0000 
2093.781	6.3940	18.3636	-11.7609	0.0000 
2093.876	6.4105	18.2922	-11.8927	0.0000 
2093.882	6.4050	18.2373	-11.9202	0.0000 
2093.882	6.3007	18.2538	-11.9037	0.0000 
2093.882	6.1304	18.3417	-11.8542	0.0000 
2093.882	6.0040	18.4351	-11.7554	0.0000 
2093.910	5.9106	18.5010	-11.6510	0.0000 
2093.930	5.8777	18.5559	-11.5631	0.0000 
2093.940	5.8557	18.5889	-11.5082	0.0000 
2093.960	5.8337	18.5669	-11.4587	0.0000 
2093.980	5.7898	18.4845	-11.3654	0.0000 
2094.051	5.7733	18.3801	-11.2006	0.0000 
2094.061	5.7953	18.2922	-10.9918	0.0000 
2094.061	5.8502	18.2318	-10.7391	0.0000 
2094.067	5.9052	18.1824	-10.4590	0.0000 
2094.084	5.9216	18.1604	-10.1459	0.0000 
2094.106	5.9106	18.1824	-9.8218	0.0000 
2094.128	5.9271	18.2318	-9.4592	0.0000 
2094.140	5.9546	18.2758	-9.1022	0.0000 
2094.160	5.9436	18.3527	-8.8000	0.0000 
2094.180	5.9271	18.4845	-8.5529	0.0000 
2094.199	5.9381	18.6493	-8.3057	0.0000 
2094.288	5.9601	18.8306	-8.0420	0.0000 
2094.294	6.0260	19.0338	-7.7344	0.0000 
2094.294	6.1359	19.2261	-7.3334	0.0000 
2094.294	6.2952	19.4019	-6.8225	0.0000 
2094.300	6.4545	19.5502	-6.2787	0.0000 
2094.320	6.5863	19.6930	-5.7788	0.0000 
2094.344	6.7511	19.9127	-5.3394	0.0000 
2094.366	6.8225	20.2258	-5.0317	0.0000 
2094.388	6.7950	20.5115	-4.8450	0.0000 
2094.463	6.7236	20.6982	-4.7186	0.0000 
2094.475	6.5479	20.7367	-4.5758	0.0000 
2094.475	6.4545	20.6763	-4.2847	0.0000 
2094.475	6.4545	20.5444	-3.8672	0.0000 
2094.481	6.4490	20.3961	-3.5046	0.0000 
2094.497	6.3776	20.2863	-3.3508	0.0000 
2094.517	6.2347	20.2313	-3.3344	0.0000 
2094.538	6.0699	20.2039	-3.3893	0.0000 
2094.560	5.9381	20.1544	-3.4332	0.0000 
2094.581	5.8447	20.0885	-3.5156	0.0000 
2094.603	5.7678	20.0281	-3.6584	0.0000 
2094.627	5.7019	20.0006	-3.8837	0.0000 
2094.697	5.6360	19.9896	-4.1473	0.0000 
2094.708	5.5536	19.9951	-4.4110	0.0000 
2094.708	5.4547	20.0281	-4.6912	0.0000 
2094.708	5.3119	20.0775	-5.0153	0.0000 
2094.716	5.1141	20.1434	-5.4053	0.0000 
2094.736	4.9274	20.2094	-5.8392	0.0000 
2094.756	4.7626	20.2423	-6.3062	0.0000 
2094.776	4.6252	20.2368	-6.8170	0.0000 
2094.797	4.5264	20.1709	-7.3334	0.0000 
2094.872	4.4989	20.0665	-7.8113	0.0000 
2094.885	4.5209	19.9402	-8.2507	0.0000 
2094.885	4.5593	19.7809	-8.6737	0.0000 
2094.885	4.6033	19.5721	-9.0912	0.0000 
2094.904	4.7131	19.3304	-9.4537	0.0000 
2094.915	4.8615	19.0942	-9.7778	0.0000 
2094.936	4.9164	18.8635	-10.1294	0.0000 
2094.955	4.9054	18.6823	-10.5194	0.0000 
2094.975	4.9054	18.5779	-10.8820	0.0000 
2094.995	4.9384	18.5339	-11.2006	0.0000 
2095.014	4.9384	18.5394	-11.5631	0.0000 
2095.107	4.8724	18.6053	-12.0135	0.0000 
2095.113	4.7406	18.6823	-12.5244	0.0000 
2095.113	4.5428	18.7152	-13.0188	0.0000 
2095.113	4.3616	18.6823	-13.4143	0.0000 
2095.119	4.2188	18.5999	-13.7164	0.0000 
2095.141	4.1309	18.5120	-13.9142	0.0000 
2095.162	4.0430	18.4351	-14.0405	0.0000 
2095.183	3.9331	18.4021	-14.1229	0.0000 
2095.193	3.8068	18.4021	-14.1998	0.0000 
2095.280	3.6914	18.4241	-14.2603	0.0000 
2095.286	3.5870	18.4241	-14.2932	0.0000 
2095.286	3.5101	18.3746	-14.2987	0.0000 
2095.286	3.4882	18.2813	-14.2767	0.0000 
2095.293	3.5266	18.1549	-14.2053	0.0000 
2095.312	3.5651	18.0176	-14.1010	0.0000 
2095.333	3.6475	17.9297	-13.9856	0.0000 
2095.356	3.7134	17.8912	-13.8922	0.0000 
2095.378	3.7463	17.8748	-13.8263	0.0000 
2095.398	3.8123	17.9077	-13.7714	0.0000 
2095.422	3.8507	17.9352	-13.6670	0.0000 
2095.432	3.8617	17.9572	-13.5626	0.0000 
2095.519	3.8672	17.9791	-13.4747	0.0000 
2095.530	3.8947	17.9846	-13.3813	0.0000 
2095.531	3.9386	17.9572	-13.2660	0.0000 
2095.531	3.9880	17.9132	-13.1561	0.0000 
2095.537	4.0375	17.8748	-13.0518	0.0000 
2095.555	4.0759	17.8693	-12.9584	0.0000 
2095.577	4.1254	17.8857	-12.8595	0.0000 
2095.597	4.1748	17.9242	-12.7716	0.0000 
2095.620	4.1968	17.9681	-12.6947	0.0000 
2095.698	4.1968	18.0011	-12.6178	0.0000 
2095.709	4.1803	18.0066	-12.5299	0.0000 
2095.709	4.1473	17.9901	-12.4585	0.0000 
2095.710	4.1254	17.9791	-12.4146	0.0000 
2095.716	4.0979	17.9791	-12.3761	0.0000 
2095.731	4.0814	17.9736	-12.3322	0.0000 
2095.753	4.0704	17.9572	-12.2662	0.0000 
2095.778	4.0759	17.9352	-12.1619	0.0000 
2095.799	4.1034	17.9077	-12.0410	0.0000 
2095.820	4.1309	17.8802	-11.9312	0.0000 
2095.831	4.1638	17.8363	-11.8158	0.0000 
2095.851	4.1858	17.8033	-11.7059	0.0000 
2095.924	4.2023	17.7869	-11.6180	0.0000 
2095.935	4.2242	17.7814	-11.5466	0.0000 
2095.936	4.2352	17.7869	-11.4697	0.0000 
2095.936	4.2572	17.8033	-11.3873	0.0000 
2095.958	4.3121	17.8253	-11.2830	0.0000 
2095.981	4.3781	17.8418	-11.1621	0.0000 
2095.989	4.4220	17.8638	-11.0577	0.0000 
2096.009	4.4550	17.8912	-10.9479	0.0000 
2096.029	4.4879	17.9297	-10.8270	0.0000 
2096.102	4.5428	17.9681	-10.7062	0.0000 
2096.113	4.5868	18.0066	-10.5853	0.0000 
2096.114	4.6417	18.0505	-10.4535	0.0000 
2096.114	4.7131	18.0945	-10.3107	0.0000 
2096.136	4.7791	18.1329	-10.1678	0.0000 
2096.156	4.8120	18.1659	-10.0360	0.0000 
2096.177	4.8395	18.2043	-9.9261	0.0000 
2096.190	4.8615	18.2428	-9.8163	0.0000 
2096.208	4.9054	18.2813	-9.6844	0.0000 
2096.228	4.9493	18.3032	-9.5526	0.0000 
2096.247	4.9658	18.3252	-9.4318	0.0000 
2096.340	4.9933	18.3582	-9.2999	0.0000 
2096.346	5.0317	18.3856	-9.1571	0.0000 
2096.346	5.0757	18.4021	-9.0198	0.0000 
2096.346	5.1031	18.4021	-8.8934	0.0000 
2096.352	5.1196	18.4076	-8.7891	0.0000 
2096.373	5.1361	18.4076	-8.6847	0.0000 
2096.395	5.1746	18.4131	-8.5803	0.0000 
2096.416	5.2185	18.3966	-8.4595	0.0000 
2096.426	5.2405	18.3911	-8.3551	0.0000 
2096.518	5.2679	18.3966	-8.2782	0.0000 
2096.524	5.3064	18.4131	-8.2013	0.0000 
2096.524	5.3339	18.4186	-8.1299	0.0000 
2096.524	5.3448	18.4296	-8.0640	0.0000 
2096.530	5.3558	18.4351	-8.0090	0.0000 
2096.551	5.3668	18.4406	-7.9596	0.0000 
2096.573	5.4053	18.4460	-7.9047	0.0000 
2096.595	5.4437	18.4406	-7.8442	0.0000 
2096.605	5.4767	18.4351	-7.8003	0.0000 
2096.695	5.5042	18.4351	-7.7673	0.0000 
2096.707	5.5481	18.4460	-7.7454	0.0000 
2096.707	5.6030	18.4515	-7.7069	0.0000 
2096.707	5.6580	18.4406	-7.6630	0.0000 
2096.713	5.6964	18.4351	-7.6245	0.0000 
2096.729	5.7349	18.4351	-7.5916	0.0000 
2096.755	5.7623	18.4296	-7.5641	0.0000 
2096.765	5.7788	18.4460	-7.5641	0.0000 
2096.785	5.8008	18.4570	-7.5586	0.0000 
2096.804	5.8118	18.4625	-7.5366	0.0000 
2096.824	5.8282	18.4625	-7.5146	0.0000 
2096.844	5.8502	18.4735	-7.5037	0.0000 
2096.935	5.8557	18.4845	-7.4982	0.0000 
2096.941	5.8502	18.5010	-7.4982	0.0000 
2096.941	5.8502	18.5120	-7.4982	0.0000 
2096.941	5.8667	18.5120	-7.4652	0.0000 
2096.947	5.8777	18.5065	-7.4268	0.0000 
2096.967	5.8887	18.5120	-7.3883	0.0000 
2096.989	5.9052	18.5284	-7.3499	0.0000