StartTime: 2018-11-18 09:26:32.427
Time(s)	ax(g)	ay(g)	az(g)	AngleX(deg)	AngleY(deg)	AngleZ(deg)	T(Â°) 
692.206	-0.0225	0.1255	1.0264	5.4602	4.1364	-9.3549	20.0200 
692.206	-0.0186	0.1499	1.0200	5.4492	4.1418	-9.4043	20.0300 
692.207	-0.0220	0.1553	1.0376	5.4382	4.1528	-9.4592	20.0300 
692.207	-0.0283	0.1245	1.0229	5.4218	4.1309	-9.4812	20.0200 
692.225	-0.0249	0.1382	1.0073	5.3998	4.1199	-9.5581	20.0300 
692.341	-0.0234	0.1563	1.0259	5.3943	4.1144	-9.6460	20.0300 
692.355	-0.0215	0.1411	1.0210	5.3833	4.0759	-9.6899	20.0200 
692.355	-0.0288	0.1216	1.0244	5.3394	4.0430	-9.7449	20.0200 
692.355	-0.0283	0.1509	1.0210	5.3064	4.0430	-9.8712	20.0100 
692.355	-0.0239	0.1460	1.0327	5.2899	4.0210	-9.9261	20.0300 
692.355	-0.0249	0.1138	1.0063	5.2405	3.9661	-9.9536	20.0200 
692.356	-0.0225	0.1421	1.0244	5.1746	3.9551	-10.0580	20.0500 
692.377	-0.0239	0.1455	1.0195	5.1251	3.9276	-10.1349	20.0500 
692.400	-0.0093	0.1343	1.0166	5.0592	3.8782	-10.1733	20.0300 
692.418	-0.0063	0.1304	1.0317	4.9823	3.8342	-10.2228	20.0300 
692.435	-0.0122	0.1221	1.0220	4.9109	3.7903	-10.2942	20.0300 
692.455	-0.0166	0.1226	1.0298	4.8395	3.7628	-10.3931	20.0400 
692.568	-0.0229	0.1309	1.0283	4.7791	3.7408	-10.4865	20.0200 
692.590	-0.0225	0.1309	1.0205	4.7076	3.7079	-10.5469	20.0400 
692.590	-0.0166	0.1328	1.0166	4.6307	3.6749	-10.6018	20.0400 
692.590	-0.0181	0.1309	1.0303	4.5538	3.6475	-10.6567	20.0300 
692.590	-0.0161	0.1147	1.0337	4.4659	3.6145	-10.6897	20.0400 
692.590	-0.0239	0.1094	1.0386	4.3781	3.6090	-10.7611	20.0300 
692.605	-0.0269	0.1396	1.0313	4.2957	3.6310	-10.8655	20.0400 
692.624	-0.0254	0.1377	1.0308	4.2188	3.6530	-10.9094	20.0200 
692.641	-0.0127	0.1094	1.0015	4.1254	3.6420	-10.8984	20.0300 
692.657	-0.0142	0.1084	1.0151	4.0265	3.6584	-10.9204	20.0300 
692.673	-0.0146	0.1230	1.0532	3.9386	3.6859	-10.9753	20.0200 
692.786	-0.0078	0.1201	1.0327	3.8617	3.6804	-11.0028	20.0300 
692.811	-0.0210	0.0859	1.0332	3.7848	3.6914	-11.0193	20.0500 
692.811	-0.0273	0.1055	1.0137	3.7134	3.7299	-11.1017	20.0400 
692.811	-0.0103	0.1260	1.0288	3.6420	3.7793	-11.1401	20.0500 
692.811	0.0000	0.0820	1.0337	3.5541	3.7738	-11.0962	20.0500 
692.812	0.0024	0.0718	1.0317	3.4607	3.7793	-11.1237	20.0200 
692.831	-0.0215	0.0991	1.0449	3.4003	3.8397	-11.2555	20.0400 
692.851	-0.0410	0.0703	1.0078	3.3618	3.8837	-11.3379	20.0400 
692.866	-0.0371	0.0693	0.9878	3.2959	3.9331	-11.3873	20.0300 
692.893	-0.0137	0.0991	1.0117	3.2410	3.9551	-11.4038	20.0300 
693.011	-0.0015	0.0610	0.9980	3.1970	3.9001	-11.3379	20.0300 
693.026	-0.0254	0.0474	1.0171	3.1531	3.8562	-11.3544	20.0200 
693.026	-0.0288	0.1270	1.0322	3.1366	3.8727	-11.5247	20.0400 
693.026	0.0049	0.1011	1.0620	3.1366	3.8123	-11.4972	20.0400 
693.026	0.0127	0.0293	1.0142	3.0872	3.6804	-11.3049	20.0400 
693.026	0.0283	0.1548	1.0410	3.0267	3.6694	-11.3159	20.0400 
693.027	0.0474	0.2036	1.0151	3.0212	3.6475	-11.3379	20.0300 
693.043	0.0464	0.0649	0.9727	2.9663	3.5376	-11.1841	20.0400 
693.075	0.0527	0.0776	0.9980	2.8455	3.4772	-11.1786	20.0300 
693.090	0.0742	0.1743	1.0439	2.7356	3.4827	-11.2885	20.0400 
693.099	0.0913	0.1226	1.0327	2.6147	3.3893	-11.2006	20.0400 
693.123	0.1240	0.1245	0.9990	2.4445	3.2684	-11.0852	20.0400 
693.222	0.1240	0.1660	1.0303	2.3016	3.2190	-11.0907	20.0400 
693.241	0.0840	0.1299	1.0610	2.1863	3.1750	-11.0248	20.0400 
693.241	-0.0015	0.0503	1.1011	2.0325	3.1696	-10.9424	20.0400 
693.241	0.0010	0.1235	1.0688	1.9226	3.1696	-10.9479	20.0500 
693.241	0.0659	0.2295	1.0317	1.8787	3.1421	-10.7831	20.0400 
693.241	0.1128	0.1875	0.9688	1.8073	2.9938	-10.2777	20.0400 
693.258	0.1206	0.0991	0.9468	1.6754	2.8784	-9.7559	20.0300 
693.274	0.0698	0.1079	0.9204	1.5436	2.9388	-9.5801	20.0300 
693.372	0.0459	0.1948	1.0371	1.4502	3.1366	-9.5306	20.0300 
693.394	0.0552	0.1377	1.0010	1.3239	3.1860	-9.2395	20.0300 
693.395	0.0747	0.0811	1.0239	1.1206	3.2300	-8.9044	20.0400 
693.395	0.1025	0.1636	1.0122	0.9503	3.2684	-8.7396	20.0500 
693.395	0.0806	0.1592	1.0107	0.8350	3.3069	-8.4869	20.0300 
693.395	0.0737	0.1157	1.0034	0.7196	3.3398	-8.1573	20.0300 
693.409	0.0938	0.1523	1.0322	0.6207	3.4222	-7.8882	20.0400 
693.433	0.1138	0.1484	1.0229	0.5713	3.4717	-7.5586	20.0300 
693.449	0.0732	0.1147	1.0620	0.5219	3.5266	-7.2125	20.0200 
693.468	0.0630	0.0942	1.0923	0.4834	3.6145	-6.9269	20.0200 
693.494	0.0903	0.1621	1.0830	0.5054	3.6914	-6.6248	20.0300 
693.509	0.1309	0.1772	1.1577	0.5383	3.7848	-6.1908	20.0200 
693.527	0.1548	0.1675	1.0332	0.6207	3.7628	-5.6305	20.0200 
693.547	0.1392	0.1816	1.0776	0.7251	3.8452	-5.1910	20.0200 
693.659	0.1582	0.2437	1.1733	0.8130	3.9880	-4.9164	20.0200 
693.672	0.1812	0.2256	1.1675	0.8954	4.0540	-4.5648	20.0200 
693.672	0.1484	0.0938	1.1309	0.9888	4.0924	-4.1528	20.0100 
693.672	0.1357	0.1235	1.1299	1.1261	4.2242	-3.9496	20.0200 
693.672	0.0645	0.1118	1.2241	1.3898	4.4604	-3.7903	20.0200 
693.673	0.0483	0.0903	1.1563	1.8127	4.5483	-3.5706	20.0200 
693.688	-0.0596	0.0195	1.0474	2.3016	4.5703	-3.4222	20.0200 
693.707	-0.1509	-0.0259	1.0269	2.7026	4.7296	-3.4497	20.0300 
693.797	-0.2124	0.0337	0.9727	2.9993	5.0372	-3.6530	20.0200 
693.806	-0.2051	0.0181	1.0581	3.1805	5.3668	-3.7024	20.0300 
693.806	-0.2637	-0.1167	1.0088	3.2574	5.5701	-3.5980	20.0300 
693.806	-0.3130	-0.1211	1.1611	3.2355	5.9106	-3.6310	20.0300 
693.806	-0.2183	0.0557	1.1284	3.2245	6.0809	-3.7079	20.0200 
693.826	-0.1685	0.0640	1.1455	3.2520	6.0974	-3.4772	20.0200 
693.846	-0.0918	0.0278	0.9761	3.2300	5.9821	-3.1201	20.0200 
693.865	-0.0728	0.0869	0.9224	3.2080	5.9326	-2.9663	20.0200 
693.885	-0.0815	0.1387	0.8599	3.2465	5.9326	-2.9279	20.0000 
693.908	-0.1006	0.0635	0.8335	3.2849	5.8777	-2.8235	20.0000 
693.997	-0.1294	0.0313	0.8857	3.2025	5.8887	-2.8400	20.0100 
694.025	-0.1182	0.0986	0.8960	3.1036	5.9491	-2.9828	20.0000 
694.025	-0.0742	0.1328	0.8726	3.0377	5.9546	-2.9828	20.0000 
694.025	-0.0645	0.0884	0.8794	2.9388	5.9491	-2.8290	20.0000 
694.025	-0.0713	0.1099	0.9121	2.7905	5.9875	-2.8345	19.9900 
694.044	-0.0874	0.1377	0.9297	2.6532	6.0699	-2.9993	19.9900 
694.065	-0.1274	0.1025	0.9209	2.5214	6.1414	-3.2080	20.0100 
694.085	-0.1509	0.0879	0.9092	2.3840	6.2238	-3.4772	20.0000 
694.107	-0.1514	0.1509	0.9609	2.2852	6.3446	-3.8287	20.0000 
694.107	-0.1455	0.1685	1.0103	2.2357	6.4215	-4.0869	20.0000 
694.206	-0.1392	0.1563	1.0283	2.2137	6.3721	-4.2737	20.0000 
694.222	-0.1284	0.1943	1.0391	2.2028	6.2787	-4.5978	19.9900 
694.222	-0.1196	0.2310	1.0264	2.2357	6.1469	-4.9878	20.0000 
694.222	-0.1138	0.1899	1.0527	2.2797	5.9436	-5.2350	20.0000 
694.222	-0.1289	0.1606	1.0376	2.3126	5.6195	-5.3778	20.0000 
694.243	-0.1089	0.0869	1.0522	2.3291	5.2570	-5.5261	20.0200 
694.264	-0.0718	0.0659	1.2021	2.3621	4.9658	-5.6909	20.0000 
694.264	-0.0581	0.0557	1.3340	2.4829	4.6307	-5.7404	19.9900 
694.283	-0.0303	0.0820	1.2559	2.6807	4.1968	-5.6964	19.9900 
694.304	0.0322	0.0024	1.2373	2.7850	3.7848	-5.3888	19.9900 
694.393	0.0898	-0.0840	1.1377	2.7466	3.2849	-4.7845	20.0100 
694.403	0.1382	-0.1860	0.9883	2.6147	2.8674	-4.1693	20.0000 
694.403	0.1895	-0.1797	0.9517	2.4994	2.5214	-3.7573	19.9900 
694.403	0.1362	-0.2163	1.1616	2.4664	2.4005	-3.6420	19.9900 
694.403	0.0352	-0.2441	1.2622	2.4939	2.3840	-3.8068	19.9900 
694.423	-0.0498	-0.0532	1.1724	2.6367	2.4445	-4.3835	20.0000 
694.444	-0.0195	0.0811	1.0605	2.8290	2.4390	-4.8395	19.9900 
694.463	0.0425	0.0112	0.9458	2.9388	2.2961	-4.6912	19.9900 
694.482	0.0625	-0.1216	0.8467	2.9224	2.1204	-4.2462	19.9900 
694.501	0.0742	-0.0396	0.7983	2.9114	2.1753	-4.0814	19.9900 
694.525	0.0776	0.0864	0.8516	3.0322	2.3730	-4.1473	19.9900 
694.542	0.0928	0.0337	0.8369	3.1311	2.4115	-3.9825	19.9900 
694.561	0.0620	-0.0420	0.8892	3.0872	2.4829	-3.7518	19.9900 
694.680	0.0469	0.0410	0.9727	2.9828	2.6752	-3.7134	19.9900 
694.702	0.0425	0.0576	1.0083	2.8784	2.8619	-3.5870	19.9800 
694.702	0.0850	0.0244	0.9795	2.7356	2.9498	-3.2245	19.9800 
694.702	0.1108	0.0415	0.9966	2.5983	3.0322	-2.8235	19.9900 
694.702	0.1133	0.0791	1.0430	2.5433	3.1366	-2.4609	19.9800 
694.703	0.1104	0.0894	1.0469	2.5873	3.1915	-2.0599	19.9800 
694.703	0.0957	0.0928	1.0464	2.6971	3.2135	-1.6095	19.9700 
694.724	0.0649	0.0659	1.0586	2.8510	3.2520	-1.1206	19.9700 
694.815	0.0625	0.0825	1.0537	3.0322	3.3069	-0.6592	19.9800 
694.840	0.1167	0.1821	1.0117	3.2739	3.3728	-0.2802	19.9800 
694.840	0.1548	0.1841	0.9912	3.6035	3.4058	0.1923	19.9700 
694.840	0.1367	0.0908	0.9414	3.9331	3.3893	0.7581	19.9800 
694.840	0.0532	0.0562	1.0493	4.2682	3.4772	1.0602	19.9800 
694.840	-0.0840	0.0010	1.3340	4.6417	3.7408	1.1920	19.9700 
694.860	-0.1431	0.1367	1.2793	5.0043	3.9276	1.0217	19.9600 
694.882	-0.1216	0.2842	1.2017	5.3998	4.0540	0.7141	19.9700 
694.902	-0.1787	0.0518	1.0459	5.6525	4.1693	0.9283	19.9500 
694.925	-0.2124	-0.1240	1.0190	5.6635	4.2737	1.2579	19.9600 
694.947	-0.3237	-0.1279	1.2539	5.5536	4.6967	1.3458	19.9700 
694.961	-0.2915	0.0127	1.2788	5.4492	5.0043	1.3513	19.9600 
694.979	-0.0635	0.2778	1.1865	5.4053	4.8834	1.6479	19.9500 
694.998	0.0542	0.1553	0.9990	5.4053	4.3890	2.5433	19.9600 
695.121	0.0962	-0.0049	0.8071	5.3284	3.7244	3.6310	19.9700 
695.144	0.0244	0.0410	0.7886	5.1801	3.4882	3.9935	19.9400 
695.144	-0.0371	0.1089	0.7998	5.1526	3.4497	3.8287	19.9500 
695.145	-0.0957	0.1030	0.7959	5.1526	3.4003	3.6584	19.9400 
695.145	-0.0908	0.1113	0.8301	5.1141	3.3453	3.6145	19.9400 
695.145	-0.0430	0.1504	0.8633	5.0537	3.2465	3.6749	19.9600 
695.145	-0.0156	0.1533	0.9092	4.9658	3.1201	3.7903	19.9500 
695.159	0.0024	0.1172	0.9448	4.8230	3.0103	3.8672	19.9500 
695.265	-0.0200	0.0908	0.9458	4.7021	2.9938	3.7903	19.9300 
695.297	-0.0381	0.1694	0.9673	4.6692	3.1201	3.4222	19.9200 
695.297	-0.0640	0.2290	0.9854	4.6967	3.3069	2.9718	19.9300 
695.297	-0.0684	0.1919	0.9907	4.6912	3.4222	2.6971	19.9400 
695.298	-0.0806	0.1528	1.0420	4.6417	3.5266	2.4939	19.9300 
695.298	-0.0718	0.2100	1.0532	4.6582	3.5815	2.1643	19.9300 
695.318	-0.0562	0.2505	1.0493	4.7626	3.5815	1.7798	19.9300 
695.339	-0.0576	0.2144	1.0625	4.8724	3.5431	1.4337	19.9200 
695.339	-0.0903	0.1812	1.0801	4.9493	3.5431	1.0437	19.9300 
695.361	-0.1084	0.2402	1.1128	5.0098	3.5870	0.5383	19.9400 
695.378	-0.0762	0.2656	1.1646	5.0812	3.5651	0.1099	19.9300 
695.397	0.0522	0.1992	1.2769	5.1361	3.3453	-0.0494	19.9300 
695.483	0.0903	0.1270	1.1665	5.2130	2.9663	-0.1593	19.9200 
695.488	0.1060	-0.0015	1.2422	5.2515	2.7026	-0.3076	19.9300 
695.488	0.1729	0.0088	1.0879	5.2789	2.3785	-0.4724	19.9300 
695.488	0.2046	-0.0073	1.0181	5.2625	2.1204	-0.4999	19.9200 
695.508	0.1978	-0.1455	1.0308	5.0702	1.8842	-0.3955	19.9300 
695.523	0.0522	-0.2930	1.1851	4.7186	1.8951	-0.5383	19.9200 
695.541	-0.0562	-0.1494	1.2778	4.4220	2.2906	-1.4447	19.9100 
695.561	-0.0645	0.1167	1.1631	4.3341	2.6752	-2.4445	19.9100 
695.575	-0.0137	0.1045	0.9526	4.3341	2.7576	-2.8784	19.9000 
695.695	0.0181	-0.0693	0.7710	4.2352	2.7795	-2.8729	19.9000 
695.705	0.0190	-0.0889	0.7490	4.0375	2.9718	-2.9443	19.8900 
695.705	0.0049	0.0073	0.8330	3.8782	3.3453	-3.2739	19.9000 
695.705	0.0103	0.0762	0.9053	3.7848	3.7244	-3.6310	19.8900 
695.705	0.1035	0.1108	0.9009	3.6749	3.9496	-3.7958	19.8900 
695.705	0.1411	0.0566	0.8857	3.5541	4.0594	-3.7463	19.8900 
695.724	0.0552	-0.0293	0.9312	3.4222	4.2188	-3.6584	19.9000 
695.755	-0.0054	-0.0015	0.9976	3.2794	4.4879	-3.7463	19.9000 
695.770	0.0303	0.1177	1.0093	3.1860	4.7021	-3.9276	19.8800 
695.792	0.0605	0.1597	1.0239	3.1256	4.8230	-3.9221	19.8800 
695.894	0.0811	0.1035	0.9780	3.1036	4.8010	-3.5980	19.8800 
695.907	0.0669	0.0522	0.9819	3.0707	4.7955	-3.1860	19.8500 
695.907	0.0332	0.0996	1.0508	3.0542	4.9329	-2.9169	19.8600 
695.907	0.0132	0.0908	1.0874	3.0817	5.0977	-2.6147	19.8600 
695.907	0.0181	0.0845	1.1108	3.1311	5.2350	-2.2247	19.8500 
695.908	0.0566	0.1807	1.1050	3.2190	5.3778	-1.9171	19.8400 
695.932	0.1162	0.2554	1.0640	3.3838	5.5096	-1.5930	19.8400 
695.952	0.0903	0.1309	1.0117	3.5706	5.5756	-1.0712	19.8400 
695.970	-0.0005	-0.0137	1.0273	3.7793	5.7458	-0.5768	19.8400 
695.995	-0.1992	-0.0581	1.3130	4.0869	6.1743	-0.4779	19.8300 
695.995	-0.1831	0.1646	1.2476	4.5319	6.4655	-0.7361	19.8300 
696.096	-0.1738	0.2231	1.0977	5.0812	6.5259	-0.5988	19.8400 
696.105	-0.2192	0.0244	1.0210	5.3174	6.5259	-0.1154	19.8400 
696.105	-0.2598	-0.0293	1.0635	5.2954	6.7621	0.0000	19.8400 
696.106	-0.2769	0.0288	1.1299	5.2295	7.0642	0.0110	19.8200 
696.106	-0.3032	-0.0688	1.3345	5.1581	7.2015	0.3516	19.8300 
696.135	-0.1475	0.0840	1.1670	5.0647	6.9928	0.6702	19.8400 
696.153	-0.0293	0.2026	1.1045	5.0592	6.7346	1.1810	19.8300 
696.153	0.0068	0.1299	0.9233	5.0757	6.2677	2.0215	19.8300 
696.174	-0.0410	0.0107	0.7788	4.9713	5.9491	2.6697	19.8200 
696.191	-0.0625	0.1069	0.7739	4.9109	5.8118	2.8400	19.8300 
696.309	-0.0771	0.1963	0.7930	4.9658	5.6744	2.8510	19.8300 
696.322	-0.0493	0.1724	0.7524	5.0208	5.3943	3.0432	19.8200 
696.322	-0.0176	0.1528	0.7881	4.9933	5.1746	3.2629	19.8100 
696.322	-0.0195	0.1694	0.8354	4.9438	5.0317	3.3344	19.8100 
696.322	-0.0493	0.1689	0.9478	4.8615	4.9878	3.3179	19.8100 
696.322	-0.0791	0.1270	0.9443	4.7626	4.9109	3.2849	19.8000 
696.341	-0.0884	0.1641	0.9502	4.7021	4.8889	3.1091	19.8200 
696.357	-0.0884	0.2075	0.9463	4.6802	4.8944	2.9279	19.8000 
696.468	-0.0884	0.1909	0.9595	4.6472	4.8889	2.8674	19.8000 
696.490	-0.0874	0.1851	0.9731	4.6088	4.8669	2.7960	19.7900 
696.490	-0.1123	0.2319	1.1069	4.5813	4.8724	2.6147	19.8100 
696.490	-0.0913	0.2666	1.1147	4.5923	4.7736	2.3676	19.8000 
696.490	-0.1021	0.1924	1.1255	4.6527	4.5868	2.2028	19.7800 
696.490	-0.1382	0.1587	1.0703	4.7241	4.4110	1.9775	19.7900 
696.508	-0.1177	0.2290	1.1704	4.8120	4.3231	1.6150	19.7900 
696.529	-0.0254	0.2329	1.2773	4.9164	4.1473	1.4337	19.8000 
696.552	0.1040	0.1753	1.1782	5.0482	3.7463	1.5051	19.7800 
696.568	0.1597	0.1401	1.1318	5.1746	3.3398	1.5820	19.7600 
696.686	0.2104	0.0044	1.2207	5.1746	3.0487	1.7578	19.7900 
696.707	0.1982	-0.1372	1.2559	4.9768	2.7905	2.0984	19.7900 
696.707	0.1436	-0.2178	1.1597	4.6912	2.6038	2.0709	19.7800 
696.707	0.0874	-0.1313	1.2637	4.4495	2.6971	1.3898	19.7900 
696.707	-0.0762	-0.0962	1.3052	4.2462	2.9883	0.4669	19.7800 
696.707	-0.0771	-0.0225	1.1919	4.0649	3.2025	-0.4175	19.7800 
696.707	0.0151	0.1265	0.9136	4.0320	3.2849	-1.0602	19.7900 
696.728	0.0459	0.0454	0.7529	4.0594	3.2739	-1.2360	19.7700 
696.749	0.0747	-0.0771	0.6514	3.9276	3.3014	-1.2030	19.7700 
696.769	0.0308	-0.0659	0.8057	3.7189	3.6035	-1.5161	19.7700 
696.783	0.0381	0.0718	0.8252	3.5541	3.9606	-2.1753	19.7600 
696.911	0.0352	0.0361	0.8984	3.4387	4.2352	-2.5983	19.7700 
696.911	0.0269	-0.0879	0.8774	3.2410	4.3396	-2.7026	19.7600 
696.921	0.0215	-0.0762	0.9658	2.9993	4.4714	-2.8235	19.7500 
696.921	0.0352	-0.0044	1.0215	2.8839	4.6307	-3.0652	19.7500 
696.921	0.0874	0.0850	0.9468	2.9114	4.6857	-3.2739	19.7500 
696.921	0.0889	0.1631	0.9673	3.0542	4.8010	-3.3893	19.7500 
696.922	0.0610	0.1338	0.9932	3.2190	4.8560	-3.2520	19.7600 
696.945	0.0522	0.0942	0.9824	3.3673	4.8834	-2.9553	19.7300 
696.966	0.0146	0.0776	1.0439	3.5156	5.0427	-2.6642	19.7400 
696.981	0.0005	0.1089	1.0703	3.7189	5.2240	-2.4060	19.7400 
697.008	0.0820	0.2627	1.0332	3.9771	5.3613	-2.1588	19.7500 
697.136	0.1685	0.2734	1.0122	4.2682	5.4053	-1.7413	19.7500 
697.158	0.1152	0.0737	0.9219	4.5154	5.4327	-1.2250	19.7600 
697.159	-0.0376	-0.0669	0.9785	4.7186	5.7184	-0.9393	19.7500 
697.159	-0.3022	-0.1040	1.3452	5.0098	6.3007	-0.9778	19.7400 
697.159	-0.2744	0.1597	1.2998	5.3998	6.6467	-1.1646	19.7300 
697.159	-0.2339	0.2681	1.3379	5.8392	6.7731	-0.8130	19.7500 
697.159	-0.2031	0.1104	1.1899	6.0480	6.6852	-0.0934	19.7300 
697.159	-0.1953	-0.0137	1.0088	5.9601	6.7731	0.3351	19.7300 
697.172	-0.2827	-0.0186	1.1973	5.7458	7.2290	0.4999	19.7300 
697.271	-0.2808	-0.0161	1.2749	5.5096	7.4927	0.6592	19.7300 
697.292	-0.1616	0.0615	1.1606	5.2734	7.4048	0.9174	19.7400 
697.293	-0.0864	0.1025	1.0103	5.1526	7.1082	1.3623	19.7300 
697.293	-0.0566	0.1128	0.8628	5.1031	6.6962	1.9006	19.7300 
697.293	-0.0581	0.0630	0.7832	5.0043	6.3336	2.4445	19.7400 
697.293	-0.0522	0.1001	0.7427	4.8615	6.0590	2.8564	19.7300 
697.307	-0.0571	0.1235	0.7236	4.7351	5.8667	3.2080	19.7400 
697.327	-0.0698	0.1123	0.7217	4.5923	5.7019	3.5211	19.7400 
697.347	-0.0825	0.1401	0.8179	4.3945	5.6250	3.7079	19.7400 
697.367	-0.0747	0.1719	0.8945	4.1473	5.5481	3.7738	19.7200 
697.479	-0.0522	0.1289	0.9204	3.9166	5.3558	3.9386	19.7200 
697.505	-0.0947	0.0527	0.9644	3.6804	5.1965	4.1638	19.7500 
697.505	-0.1030	0.1626	1.0181	3.4497	5.1636	4.1144	19.7300 
697.505	-0.0928	0.2490	1.0557	3.2904	5.1636	4.0045	19.7300 
697.505	-0.0806	0.1816	1.0396	3.1696	5.0427	4.1748	19.7300 
697.505	-0.0801	0.1572	1.0361	3.0267	4.8779	4.4055	19.7300 
697.505	-0.0645	0.2368	1.0864	2.9279	4.7241	4.4550	19.7300 
697.524	-0.0205	0.2656	1.0693	2.9169	4.4659	4.4879	19.7300 
697.544	-0.0366	0.1880	1.0537	2.9443	4.1528	4.5813	19.7300 
697.567	-0.0835	0.1357	1.0737	2.9333	3.9331	4.5813	19.7300 
697.583	-0.0596	0.1880	1.2065	2.8839	3.8397	4.3671	19.7200 
697.715	0.0093	0.1782	1.3315	2.8180	3.7134	4.2737	19.7200 
697.721	0.1191	0.0640	1.3359	2.7631	3.3618	4.5648	19.7200 
697.724	0.1353	-0.0527	1.3101	2.6971	2.9883	4.9878	19.7100 
697.724	0.1943	-0.0889	1.1104	2.6093	2.6642	5.2625	19.7300 
697.724	0.1543	-0.0874	1.0938	2.5269	2.5818	5.3119	19.7400 
697.724	0.1074	-0.1899	1.1108	2.3456	2.6697	5.1691	19.7300 
697.745	0.0234	-0.2690	1.2104	2.1039	2.8839	4.8450	19.7200 
697.764	-0.0757	-0.2329	1.2920	1.9391	3.2904	4.0155	19.7100 
697.764	-0.0771	0.0479	1.1484	1.9336	3.6035	2.9498	19.7200 
697.786	0.0049	0.1616	1.0000	2.0215	3.7299	2.2522	19.7000 
697.806	0.0503	-0.0513	0.8027	2.0105	3.6914	2.1918	19.7200 
697.826	0.0508	-0.1543	0.7271	1.8182	3.7573	2.1588	19.7200 
697.922	0.0425	0.0186	0.8184	1.6974	4.0979	1.5601	19.7300 
697.939	0.0400	0.0718	0.8447	1.7139	4.3671	0.9393	19.7200 
697.939	0.0264	-0.0806	0.8467	1.6699	4.5044	0.6537	19.6900 
697.939	0.0151	-0.0898	0.8716	1.5656	4.6692	0.2966	19.7100 
697.939	0.0146	0.0400	0.9624	1.4886	4.8944	-0.1868	19.7000 
697.961	0.0264	0.0352	1.0298	1.4063	5.0208	-0.3955	19.7100 
697.979	0.0498	-0.0347	0.9946	1.3074	4.9988	-0.3461	19.7000 
697.995	0.0571	0.0151	0.9912	1.2469	5.0372	-0.4010	19.7000 
698.025	0.0825	0.1362	1.0054	1.3129	5.1581	-0.5933	19.7000 
698.025	0.0913	0.1802	1.0015	1.4502	5.2679	-0.6702	19.7000 
698.144	0.0371	0.1084	1.0078	1.6315	5.3339	-0.4779	19.6900 
698.154	0.0137	0.0508	1.0176	1.7743	5.4053	-0.1813	19.7100 
698.154	0.0298	0.1362	1.0591	1.9006	5.5536	-0.0439	19.7000 
698.154	0.1143	0.2930	1.0273	2.0984	5.6689	-0.0275	19.6900 
698.154	0.1641	0.1743	1.0098	2.3126	5.6964	0.2472	19.6800 
698.154	0.0659	-0.0376	0.9004	2.4664	5.7294	0.5933	19.6900 
698.180	-0.1484	-0.0679	1.0444	2.6697	6.1633	0.4010	19.6800 
698.194	-0.2847	-0.0469	1.2939	3.0597	6.6962	0.1648	19.7000 
698.320	-0.1836	0.1919	1.1392	3.5156	6.8335	0.1099	19.7100 
698.320	-0.1782	0.1597	1.3154	3.9386	6.8335	0.5164	19.7000 
698.339	-0.1694	-0.0269	1.0996	4.1254	6.6797	1.0931	19.6900 
698.339	-0.2036	-0.0347	1.0518	4.1144	6.8115	1.1865	19.6800 
698.339	-0.3252	0.0127	1.3062	4.0045	7.3004	1.0986	19.7000 
698.339	-0.3252	-0.0425	1.4277	3.8232	7.5970	1.2854	19.7000 
698.339	-0.0972	0.0566	1.1377	3.6475	7.3828	1.5985	19.7000 
698.339	-0.0513	0.1040	1.0469	3.6145	7.0367	2.0270	19.7000 
698.364	-0.0112	0.0879	0.7412	3.6749	6.5039	2.5323	19.6800 
698.381	-0.0615	0.0396	0.7651	3.6420	6.1633	2.9169	19.6900 
698.398	-0.0996	0.0562	0.7642	3.5266	5.9491	3.0597	19.6800 
698.418	-0.0933	0.1104	0.7842	3.4003	5.8282	3.1091	19.6800 
698.537	-0.0659	0.1387	0.8013	3.2849	5.6635	3.3014	19.6700 
698.555	-0.0391	0.0981	0.8364	3.0981	5.4382	3.6035	19.6800 
698.555	-0.0239	0.0420	0.8926	2.8455	5.1910	3.7848	19.6800 
698.555	-0.0615	0.0332	0.9258	2.6257	5.0592	3.7848	19.6800 
698.555	-0.1104	0.1118	0.9873	2.5214	5.0537	3.5431	19.6600 
698.555	-0.1064	0.1616	0.9878	2.5104	5.0482	3.3124	19.6500 
698.575	-0.0864	0.1758	0.9858	2.5378	4.9658	3.2904	19.6800 
698.597	-0.0522	0.2056	0.9902	2.5708	4.8340	3.3893	19.6600 
698.612	-0.0410	0.1973	1.0176	2.6038	4.6417	3.5870	19.6600 
698.638	-0.0493	0.1768	1.0483	2.6147	4.4550	3.7903	19.6500 
698.639	-0.0479	0.1963	1.0630	2.6532	4.2627	3.8837	19.6600 
698.744	-0.0483	0.2222	1.0840	2.7411	4.0540	3.8782	19.6700 
698.754	-0.0532	0.2368	1.0713	2.8674	3.8177	3.8342	19.6600 
698.754	-0.0449	0.2612	1.0596	2.9828	3.5815	3.8123	19.6600 
698.754	0.0112	0.2773	1.1465	3.0542	3.3179	3.8232	19.6600 
698.755	0.1523	0.2339	1.2480	3.0707	2.9059	4.0594	19.6500 
698.776	0.1396	0.0972	1.1582	3.0762	2.3621	4.5044	19.6700 
698.799	0.1567	-0.1587	1.1978	2.9333	2.0215	4.8450	19.6600 
698.895	0.1689	-0.1997	1.2788	2.7191	1.9611	4.9438	19.6500 
698.902	0.1411	-0.1470	1.2559	2.5049	2.0160	4.7516	19.6400 
698.902	0.1470	-0.1318	1.1914	2.3181	2.0270	4.3835	19.6500 
698.902	0.0000	-0.1924	1.2554	2.1039	2.2302	3.9441	19.6500 
698.902	-0.1035	-0.1821	1.3154	1.9116	2.6202	3.2465	19.6400 
698.902	-0.0298	0.1299	1.0522	1.8951	2.8894	2.2852	19.6400 
698.923	0.0610	0.2397	0.8965	2.0380	3.0762	1.5875	19.6400 
698.943	0.1045	-0.0020	0.6953	2.0984	3.1366	1.5985	19.6300 
698.957	0.0688	-0.1543	0.6616	1.9446	3.3124	1.6260	19.6300 
698.977	0.0127	0.0015	0.7959	1.8018	3.8617	0.8240	19.6100 
698.997	0.0000	0.0967	0.8745	1.7963	4.4165	-0.0879	19.6100 
699.105	0.0225	0.0098	0.9028	1.7798	4.6802	-0.5219	19.6100 
699.123	0.0566	-0.0474	0.9385	1.6699	4.8505	-0.7361	19.6000 
699.124	0.0493	-0.0444	0.9795	1.5326	5.0537	-1.0052	19.6100 
699.124	0.0313	-0.0068	0.9966	1.4557	5.3009	-1.3733	19.6200 
699.124	0.0469	0.0728	1.0337	1.4886	5.5206	-1.7798	19.5900 
699.124	0.0537	0.1104	1.0557	1.6040	5.6580	-2.0929	19.5900 
699.140	0.0396	0.1143	1.0225	1.7908	5.7074	-2.1863	19.6100 
699.157	0.0239	0.0762	0.9883	1.9885	5.7404	-2.1094	19.6000 
699.176	-0.0352	0.0430	1.0693	2.1698	5.8667	-1.9995	19.6000 
699.195	-0.0020	0.1650	1.0386	2.3511	6.0040	-2.0270	19.5900 
699.216	0.0845	0.2534	1.0161	2.6038	6.0754	-1.9885	19.5800 
699.324	0.0879	0.1128	0.9375	2.8564	6.0150	-1.6534	19.5900 
699.339	-0.1108	-0.1616	1.0176	3.0707	6.0590	-1.3788	19.5900 
699.339	-0.2900	-0.1831	1.2983	3.3289	6.4325	-1.5985	19.5900 
699.339	-0.2437	0.2358	1.2568	3.6584	6.6357	-2.0050	19.5800 
699.339	-0.2573	0.2012	1.3022	4.0430	6.6193	-1.7029	19.6000 
699.340	-0.2139	-0.0688	1.0225	4.2242	6.4105	-0.9119	19.5900 
699.354	-0.2207	-0.0977	1.0679	4.2133	6.4819	-0.4449	19.5800 
699.374	-0.2622	0.0444	1.2959	4.1418	6.7511	-0.1923	19.5800 
699.394	-0.2090	0.1128	1.2446	4.0594	6.7950	0.1593	19.5800 
699.415	-0.0562	0.1675	1.0986	3.9496	6.5149	0.7855	19.5700 
699.434	0.0083	0.1157	0.9082	3.8123	6.0315	1.6589	19.5800 
699.537	-0.0464	-0.0220	0.8384	3.5815	5.6305	2.4939	19.5600 
699.553	-0.0620	0.0127	0.7695	3.2794	5.3833	2.9938	19.5700 
699.553	-0.0811	0.0786	0.8408	3.0432	5.2570	3.3069	19.5600 
699.553	-0.0503	0.0898	0.8159	2.8510	5.0537	3.6969	19.5600 
699.553	-0.0488	0.0776	0.8877	2.6422	4.8834	4.0704	19.5600 
699.553	-0.0410	0.1079	0.9131	2.4445	4.7736	4.2352	19.5600 
699.572	-0.0195	0.1758	0.9023	2.3181	4.7076	4.2023	19.5700 
699.593	-0.0566	0.1055	0.9395	2.2302	4.6912	4.3066	19.5500 
699.611	-0.1074	0.0098	0.9292	2.1259	4.7131	4.4659	19.5600 
699.631	-0.1519	0.1108	0.9668	2.0929	4.8560	4.2682	19.5700 
699.735	-0.1265	0.2563	0.9839	2.2083	4.9493	3.9496	19.5700 
699.753	-0.0483	0.3281	0.9902	2.3566	4.8560	3.9661	19.5600 
699.753	-0.0293	0.2285	1.0044	2.3950	4.6198	4.3945	19.5600 
699.753	-0.0615	0.1328	1.0107	2.3730	4.3781	4.7571	19.5600 
699.753	-0.0767	0.1470	1.0498	2.3895	4.2133	4.7955	19.5600 
699.754	-0.1069	0.2197	1.0913	2.4884	4.0540	4.6692	19.5500 
699.772	-0.0913	0.2437	1.1182	2.5653	3.8617	4.6362	19.5500 
699.791	0.0098	0.1533	1.3477	2.5488	3.6365	4.9603	19.5500 
699.811	0.0942	0.0435	1.3589	2.4664	3.2355	5.5701	19.5500 
699.832	0.1582	-0.0010	1.3198	2.3511	2.8784	6.1194	19.5500 
699.939	0.2080	0.0068	1.1392	2.2632	2.4774	6.6248	19.5400 
699.956	0.1548	-0.1504	1.0415	2.0929	2.2083	7.1356	19.5500 
699.956	0.1274	-0.2622	1.1353	1.7908	2.1918	7.3444	19.5400 
699.956	0.0376	-0.2178	1.3369	1.5436	2.4500	6.8115	19.5400 
699.956	-0.0151	-0.0566	1.3511	1.4667	2.7686	5.8392	19.5300 
699.956	-0.0269	0.0493	1.1235	1.4941	2.9224	4.9768	19.5500 
699.971	-0.0112	-0.0132	1.0078	1.4722	2.9883	4.4220	19.5400 
699.990	0.0137	-0.0688	0.8369	1.3568	3.0817	3.9716	19.5500 
700.012	0.0288	-0.0186	0.8335	1.2305	3.3398	3.4222	19.5400 
700.031	0.0830	0.0498	0.7905	1.1755	3.5980	2.9279	19.5400 
700.052	0.0737	-0.0142	0.8193	1.0931	3.8013	2.6422	19.5200 
700.153	0.0430	-0.0781	0.8354	0.9668	3.9990	2.3456	19.5000 
700.170	0.0254	-0.0298	0.8506	0.8734	4.2297	1.8402	19.5200 
700.170	0.0396	0.0586	0.9253	0.8405	4.5044	1.2634	19.5200 
700.170	0.0557	0.0581	0.9497	0.7910	4.6857	0.8734	19.5300 
700.170	0.0615	0.0435	0.9302	0.7361	4.7845	0.6427	19.5200 
700.170	0.0747	0.0762	0.9473	0.7196	4.8834	0.4340	19.5100 
700.190	0.0669	0.0640	0.9761	0.7526	4.9988	0.2802	19.5200 
700.212	0.0249	0.0186	0.9785	0.8350	5.1416	0.1978	19.5200 
700.232	-0.0693	-0.0083	1.0864	0.9338	5.4163	0.0549	19.5100 
700.250	-0.0254	0.0991	1.0889	1.0657	5.6744	-0.2252	19.5200 
700.360	0.1343	0.3018	1.0503	1.3019	5.8063	-0.4285	19.5200 
700.370	0.1572	0.1743	0.9492	1.5710	5.7678	-0.1703	19.5200 
700.370	-0.0024	-0.1768	0.8813	1.7523	5.7898	0.2527	19.5300 
700.370	-0.2246	-0.2246	1.1548	1.9336	6.2787	0.0934	19.5300 
700.370	-0.3242	0.1182	1.3511	2.2797	6.9214	-0.5878	19.5100 
700.370	-0.2769	0.2710	1.4150	2.7356	7.2455	-0.9283	19.5200 
700.388	-0.2612	0.0215	1.1172	3.0817	7.1686	-0.3516	19.5200 
700.411	-0.2285	-0.0415	0.8882	3.1750	7.0203	0.0879	19.5200 
700.522	-0.3120	-0.0449	1.1299	3.0432	7.3993	0.2637	19.5200 
700.538	-0.3320	-0.1323	1.3154	2.8125	7.6465	0.5658	19.5200 
700.538	-0.1401	0.0103	1.1982	2.5488	7.4652	0.8679	19.5000 
700.538	-0.1113	0.0977	1.1372	2.4719	7.1301	1.2195	19.5100 
700.538	-0.0508	0.0938	0.7573	2.5653	6.5424	1.8073	19.5000 
700.538	-0.0977	0.0220	0.8066	2.5763	6.0974	2.4609	19.5000 
700.556	-0.1011	0.0327	0.7539	2.4225	5.7843	2.9333	19.4900 
700.586	-0.1030	0.0811	0.7930	2.2522	5.5811	3.3563	19.5000 
700.605	-0.0571	0.1143	0.7642	2.1259	5.3064	3.9166	19.5000 
700.626	-0.0439	0.0464	0.8145	1.9666	5.0043	4.5978	19.5000 
700.724	-0.0435	0.0469	0.8545	1.7578	4.7351	5.0262	19.4900 
700.737	-0.0566	0.1279	0.9429	1.6040	4.5703	5.1306	19.4900 
700.737	-0.0732	0.1523	0.9810	1.5051	4.4440	5.2789	19.5000 
700.737	-0.0977	0.0938	1.0156	1.3953	4.3286	5.6195	19.4900 
700.737	-0.1035	0.0688	1.0107	1.2909	4.1968	5.9766	19.4900 
700.737	-0.0913	0.1719	1.0410	1.2469	4.1144	6.1469	19.4900 
700.763	-0.0601	0.2744	1.0415	1.3184	4.0045	6.2567	19.4900 
700.784	-0.0488	0.2432	1.0410	1.4172	3.8013	6.6083	19.4800 
700.805	-0.0391	0.1943	1.0630	1.4392	3.5156	7.0972	19.4800 
700.824	-0.0093	0.1797	1.0127	1.4447	3.1366	7.4927	19.4900 
700.929	-0.0176	0.1582	0.9839	1.4886	2.7521	7.7838	19.4700 
700.936	-0.0093	0.0566	1.1528	1.5381	2.4884	7.9486	19.4700 
700.937	0.0488	0.0356	1.3687	1.5875	2.2797	8.0200	19.4700 
700.938	0.1875	0.0718	1.2778	1.6699	1.8896	8.0859	19.4700 
700.938	0.2207	-0.0557	1.3369	1.6479	1.5491	8.4320	19.4600 
700.938	0.2373	-0.2021	1.1763	1.4557	1.1646	9.0253	19.4800 
700.964	0.1543	-0.2759	1.1572	1.2085	0.9833	9.3604	19.4600 
700.964	0.0615	-0.2607	1.2681	0.9558	1.1151	9.0692	19.4600 
700.983	-0.0430	-0.2188	1.3755	0.7416	1.4282	8.4595	19.4700 
701.005	-0.0327	-0.0083	1.2246	0.6757	1.6260	7.6794	19.4600 
701.025	0.0518	0.1455	1.0508	0.7800	1.6809	6.9928	19.4600 
701.043	0.1626	0.0327	0.8027	0.9064	1.5765	6.8060	19.4500 
701.064	0.1318	-0.1978	0.7178	0.8569	1.5051	7.0367	19.4500 
701.086	0.0483	-0.1113	0.8008	0.7251	1.8182	6.6632	19.4600 
701.182	0.0405	0.0674	0.8887	0.7745	2.3730	5.5646	19.4300 
701.203	0.0522	0.0576	0.8799	0.8789	2.7136	4.8010	19.4300 
701.203	0.0771	-0.0532	0.8584	0.8350	2.8345	4.5209	19.4200 
701.203	0.0718	-0.1157	0.9297	0.6976	2.9828	4.3341	19.4500 
701.203	0.0732	-0.0605	0.9043	0.6427	3.1860	3.9496	19.4300 
701.203	0.0693	-0.0020	0.9458	0.7141	3.4552	3.4662	19.4400 
701.223	0.0718	0.0591	0.9482	0.8569	3.7134	2.9718	19.4200 
701.333	0.0703	0.1147	0.9810	1.0437	3.9166	2.6422	19.4200 
701.360	0.0659	0.0869	0.9995	1.2085	4.0594	2.5928	19.4200 
701.360	0.0269	0.0171	1.0068	1.3348	4.1638	2.7905	19.4300 
701.360	0.0020	0.0322	1.0449	1.4502	4.3451	2.9608	19.4200 
701.361	0.0269	0.1377	1.0864	1.6150	4.5538	3.0652	19.4100 
701.361	0.0732	0.1924	1.0693	1.8457	4.6857	3.2684	19.4200 
701.381	0.0820	0.1182	1.0239	2.0984	4.7406	3.7024	19.4200 
701.401	0.0840	0.1304	1.0244	2.3126	4.8560	4.0265	19.4300 
701.421	0.0347	0.1724	1.0449	2.5598	5.0482	4.1528	19.4300 
701.441	-0.0430	0.0674	1.0854	2.8564	5.2240	4.4165	19.4100 
701.550	-0.1470	-0.0459	1.3335	3.1146	5.4492	4.7351	19.4200 
701.573	-0.1201	0.1445	1.2686	3.4113	5.6140	4.8010	19.4100 
701.574	-0.1265	0.2393	1.0874	3.8507	5.5975	4.9933	19.4200 
701.574	-0.2007	0.0054	0.9536	4.1803	5.5426	5.6250	19.4200 
701.574	-0.2373	-0.1143	0.9355	4.1968	5.6964	6.0205	19.4100 
701.575	-0.2661	-0.0225	1.1445	4.1199	6.0370	6.1194	19.4100 
701.575	-0.2632	0.0220	1.3140	4.0375	6.2128	6.3995	19.4100 
701.591	-0.1099	0.1426	1.2080	3.9221	5.9985	6.9049	19.4100 
701.608	-0.0586	0.1089	1.1831	3.8013	5.6580	7.5916	19.4000 
701.622	0.0063	0.0605	0.9463	3.6475	5.2130	8.2233	19.3900 
701.646	-0.0044	0.0620	0.9160	3.4662	4.9658	8.6902	19.3800 
701.660	-0.0093	0.1030	0.7686	3.3398	4.7351	8.9539	19.3900 
701.772	-0.0234	0.1260	0.7856	3.2410	4.5868	9.1351	19.3900 
701.789	-0.0220	0.1309	0.7490	3.1531	4.3671	9.3054	19.4000 
701.789	-0.0293	0.1313	0.8032	3.0322	4.1858	9.4647	19.4100 
701.789	-0.0415	0.1455	0.8750	2.8894	4.0430	9.5746	19.3900 
701.789	-0.0444	0.1255	0.9189	2.7356	3.9056	9.7614	19.3800 
701.789	-0.0181	0.1250	0.9258	2.5653	3.7354	9.9536	19.3700 
701.806	-0.0205	0.1362	0.9551	2.4280	3.5870	10.0854	19.3700 
701.821	-0.0215	0.1548	0.9556	2.3071	3.4442	10.1184	19.3700 
701.841	-0.0215	0.1660	0.9595	2.2028	3.3069	10.1019	19.3800 
701.861	-0.0352	0.1758	1.0205	2.1204	3.1805	10.0854	19.3800 
701.877	-0.0308	0.1724	1.0767	2.0435	2.9938	10.0470	19.3900 
701.995	0.0142	0.1782	1.1055	1.9720	2.7246	9.9426	19.3900 
702.018	0.0015	0.1582	1.1016	1.9611	2.4609	9.7614	19.3800 
702.019	-0.0537	0.1289	1.0708	2.0215	2.2797	9.4318	19.3700 
702.019	-0.0488	0.1479	1.1230	2.0929	2.2028	8.9484	19.3700 
702.019	0.0352	0.1895	1.3115	2.1753	2.1533	8.4540	19.3600 
702.019	0.1499	0.1484	1.3833	2.2961	1.9391	8.2397	19.3500 
702.019	0.1680	-0.0278	1.2158	2.4500	1.6040	8.2013	19.3800 
702.038	0.1963	-0.0430	1.2334	2.5214	1.5051	7.9486	19.3700 
702.137	0.2305	0.0005	1.1479	2.5653	1.4722	7.5696	19.3700 
702.154	0.1743	-0.1528	1.1108	2.4280	1.5106	7.3663	19.3500 
702.154	0.0547	-0.2939	1.1948	2.1259	1.7249	7.0203	19.3700 
702.154	-0.0620	-0.2295	1.2886	1.8567	2.2687	6.0535	19.3600 
702.154	-0.1147	-0.0127	1.2344	1.7798	2.7795	4.8010	19.3500 
702.174	-0.0552	0.1050	1.0542	1.8347	3.0707	3.7903	19.3600 
702.196	0.0625	0.0776	0.8271	1.9061	3.1586	3.3014	19.3500 
702.216	0.0703	-0.0986	0.7456	1.8237	3.2135	3.2520	19.3500 
702.238	0.0474	-0.1221	0.7856	1.6205	3.4387	2.9498	19.3500 
702.238	0.0410	0.0469	0.8223	1.5106	3.8562	2.0599	19.3500 
702.258	0.0361	0.0801	0.8613	1.5216	4.2023	1.3184	19.3500 
702.277	0.0552	-0.0010	0.8521	1.4557	4.3890	0.9448	19.3400 
702.295	0.0522	-0.0532	0.9219	1.2799	4.5483	0.6537	19.3400 
702.412	0.0488	-0.0288	0.9756	1.0876	4.7626	0.2362	19.3500 
702.437	0.0332	0.0195	0.9648	0.9613	4.9603	-0.2362	19.3500 
702.437	0.0415	-0.0049	0.9609	0.9064	5.1306	-0.6262	19.3400 
702.437	0.0483	0.0771	0.9971	0.9009	5.3613	-1.0931	19.3400 
702.437	0.0366	0.1592	1.0337	0.9998	5.6415	-1.5765	19.3500 
702.437	0.0176	0.1245	1.0156	1.1646	5.8282	-1.7029	19.3500 
702.437	0.0127	0.0796	1.0181	1.2909	5.9766	-1.6095	19.3300 
702.455	0.0156	0.1206	1.0479	1.3788	6.2018	-1.6315	19.3300 
702.476	0.0811	0.2715	1.0796	1.5106	6.4050	-1.7523	19.3400 
702.496	0.1265	0.2759	1.0635	1.6644	6.4984	-1.7358	19.3200 
702.516	0.0625	0.0889	1.0347	1.7688	6.5863	-1.6425	19.3300 
702.632	-0.0620	-0.0146	1.0439	1.8073	6.8445	-1.8127	19.3300 
702.654	-0.2407	-0.0171	1.3154	1.9171	7.3169	-2.1973	19.3400 
702.654	-0.2861	-0.0112	1.4878	2.0764	7.6904	-2.3950	19.3300 
702.654	-0.1138	0.2358	1.1304	2.3401	7.6520	-2.4280	19.3200 
702.654	-0.1777	0.0576	1.0615	2.6477	7.6685	-1.9995	19.3200 
702.654	-0.2280	-0.1577	0.9102	2.6917	7.7728	-1.8347	19.3300 
702.655	-0.2891	-0.1416	1.0806	2.5708	8.1464	-2.0764	19.3200 
702.674	-0.3774	-0.1479	1.2544	2.3950	8.3661	-2.2247	19.3400 
702.700	-0.2847	-0.0132	1.2061	2.1973	8.3496	-2.3071	19.3000 
702.714	-0.1406	0.1470	1.1982	2.1259	8.1189	-1.9995	19.3100 
702.733	-0.0479	0.0752	0.9932	2.0654	7.6135	-1.2689	19.3100 
702.844	-0.0571	-0.0591	0.9390	1.8677	7.2455	-0.5933	19.3100 
702.854	-0.0430	0.0234	0.8101	1.6589	6.9763	-0.3845	19.3100 
702.855	-0.1064	0.0801	0.8315	1.5546	6.8719	-0.4120	19.3000 
702.855	-0.1074	0.0854	0.7964	1.4777	6.6962	-0.3680	19.3100 
702.855	-0.0840	0.0723	0.7813	1.3458	6.4709	-0.2032	19.2900 
702.855	-0.0869	0.0591	0.8188	1.1700	6.2732	0.0000	19.3000 
702.873	-0.0752	0.0791	0.8433	0.9613	6.0919	0.1868	19.2800 
702.892	-0.0674	0.0625	0.8789	0.7800	5.9052	0.4395	19.3100 
702.916	-0.0630	0.0527	0.9087	0.6262	5.7074	0.6976	19.2700 
702.936	-0.0654	0.0864	0.9165	0.5328	5.5481	0.8130	19.2700 
702.953	-0.0986	0.1382	0.9785	0.5273	5.4767	0.8459	19.2900 
703.073	-0.1221	0.1475	1.0347	0.5658	5.4382	0.9338	19.2900 
703.086	-0.1260	0.1616	1.0537	0.6372	5.3174	1.0712	19.2800 
703.087	-0.1094	0.1987	1.0923	0.7471	5.1086	1.2524	19.2700 
703.087	-0.0874	0.1387	1.0679	0.8789	4.7900	1.6150	19.3000 
703.087	-0.1040	0.0742	1.0693	0.9833	4.4989	2.0105	19.2800 
703.087	-0.1265	0.1143	1.1484	1.1041	4.3231	2.1808	19.2600 
703.105	-0.1089	0.1812	1.2617	1.2799	4.1858	2.3401	19.2800 
703.131	0.0103	0.1250	1.3804	1.4612	3.8727	2.8674	19.2700 
703.144	0.1206	0.0732	1.3330	1.6040	3.3673	3.6694	19.2600 
703.171	0.2163	0.0078	1.1997	1.6479	2.8729	4.5428	19.2700 
703.171	0.2500	0.0215	1.0410	1.6809	2.4225	5.2789	19.2600 
703.293	0.1655	-0.1167	1.0176	1.5656	2.2632	5.8228	19.2600 
703.304	0.1079	-0.2593	1.0889	1.2524	2.2852	6.1743	19.2600 
703.304	-0.0605	-0.2773	1.3096	0.9448	2.6202	5.9381	19.2500 
703.304	-0.1050	-0.1157	1.2788	0.7800	3.0103	5.1801	19.2600 
703.304	-0.0645	0.1074	1.0781	0.7416	3.2135	4.5099	19.2400 
703.304	-0.0142	0.0195	1.0225	0.6647	3.2629	4.4330	19.2500 
703.329	0.0610	-0.1558	0.8164	0.4449	3.1750	4.8230	19.2300 
703.342	0.0972	-0.0679	0.8423	0.2307	3.2629	4.9933	19.2200 
703.460	0.1152	0.0679	0.8262	0.2032	3.4442	4.8395	19.2300 
703.460	0.0771	0.0044	0.8086	0.2142	3.5980	4.8615	19.2200 
703.471	0.0542	-0.0415	0.7534	0.1483	3.7244	4.8834	19.2100 
703.471	0.0264	-0.0249	0.8843	0.0494	3.9935	4.6857	19.2100 
703.471	0.0352	-0.0103	0.9380	-0.0714	4.2023	4.5483	19.2000 
703.471	0.0483	-0.0195	0.9478	-0.2087	4.3561	4.5813	19.1900 
703.471	0.0586	0.0137	1.0161	-0.2856	4.5264	4.6582	19.2000 
703.489	0.1206	0.0879	0.9966	-0.2692	4.5978	4.7681	19.2000 
703.509	0.1216	0.0703	1.0093	-0.1593	4.6472	4.9713	19.1900 
703.529	0.0811	0.0396	0.9990	0.0220	4.7351	5.1801	19.1900 
703.550	0.0029	0.0063	1.0542	0.2472	4.9493	5.3009	19.1800 
703.578	0.0488	0.1411	1.0439	0.4834	5.1361	5.2075	19.1900 
703.590	0.1436	0.2778	1.0542	0.7800	5.2954	5.0757	19.1800 
703.682	0.1875	0.1392	0.9590	1.0986	5.3064	5.2515	19.1800 
703.706	0.0918	-0.0571	0.8936	1.4063	5.3558	5.4437	19.1800 
703.706	-0.2085	-0.1968	1.2373	1.7798	5.8502	5.0372	19.1700 
703.706	-0.2788	-0.0234	1.3447	2.2192	6.3611	4.1473	19.1500 
703.706	-0.2036	0.2944	1.3130	2.7081	6.6138	3.4277	19.1700 
703.725	-0.2510	0.0737	1.3535	3.0322	6.7511	3.4442	19.1700 
703.837	-0.2246	-0.1118	1.0156	3.0652	6.7841	3.4882	19.1500 
703.858	-0.3110	-0.1318	1.2231	2.9773	7.2510	3.3179	19.1300 
703.858	-0.3501	-0.1201	1.3418	2.8510	7.6245	3.2025	19.1500 
703.858	-0.2085	0.0278	1.2173	2.7136	7.6904	3.1696	19.1500 
703.858	-0.0698	0.0933	1.0415	2.7026	7.5037	3.4497	19.1600 
703.858	-0.0078	0.0649	0.8125	2.7631	7.0972	3.9441	19.1400 
703.858	-0.0508	0.0474	0.8223	2.7850	6.8884	4.2297	19.1400 
703.890	-0.0601	0.0918	0.7617	2.7850	6.7401	4.1913	19.1300 
703.890	-0.0986	0.1152	0.7515	2.7850	6.6522	4.0375	19.1300 
703.908	-0.0840	0.1138	0.7578	2.7686	6.5533	3.9661	19.1200 
703.931	-0.0981	0.0425	0.7441	2.6862	6.4600	3.9331	19.1200 
703.944	-0.1250	0.0493	0.8691	2.5708	6.4600	3.7518	19.1300 
704.051	-0.0981	0.1411	0.9302	2.4609	6.4655	3.5101	19.1100 
704.065	-0.0986	0.1074	0.9688	2.4005	6.3995	3.4662	19.1100 
704.065	-0.0718	0.1167	0.8955	2.3785	6.3116	3.4222	19.1200 
704.065	-0.0884	0.1807	0.9751	2.4005	6.3611	3.2300	19.1000 
704.065	-0.0918	0.2271	0.9912	2.4774	6.3885	2.9883	19.1000 
704.066	-0.0923	0.2104	0.9834	2.5378	6.3391	2.8455	19.1100 
704.087	-0.0962	0.1797	1.0005	2.5708	6.2567	2.7026	19.1100 
704.107	-0.1147	0.1597	1.0669	2.6202	6.1743	2.4829	19.1100 
704.128	-0.1157	0.1958	1.0825	2.7191	5.9821	2.1588	19.1100 
704.146	-0.0986	0.2432	1.0815	2.8619	5.7019	1.7963	19.1100 
704.260	-0.0327	0.2344	1.2036	3.0212	5.3613	1.5271	19.1100 
704.285	0.0444	0.1611	1.4004	3.1311	4.9823	1.4282	19.1100 
704.285	0.1079	0.0527	1.3203	3.2410	4.4165	1.4722	19.1100 
704.285	0.0791	-0.0278	1.4111	3.2904	4.0155	1.5601	19.1100 
704.285	0.1606	-0.0010	1.2002	3.2849	3.5266	1.6425	19.1200 
704.285	0.1206	-0.1509	1.0767	3.1696	3.1915	1.7523	19.1100 
704.285	0.1475	-0.1816	1.0410	2.9059	3.0542	1.5765	19.1100 
704.304	0.0024	-0.2129	1.2764	2.6587	3.2959	1.0052	19.1000 
704.324	-0.0552	-0.1294	1.1890	2.4994	3.5431	0.0220	19.1000 
704.344	-0.0908	0.0259	1.0781	2.4774	3.8452	-0.9723	19.1000 
704.364	-0.0425	0.0640	0.8887	2.4829	3.9716	-1.5656	19.1000 
704.459	-0.0254	-0.0469	0.7988	2.3676	4.1089	-1.7249	19.1000 
704.483	0.0190	-0.0532	0.7432	2.1478	4.2737	-1.8457	19.0800 
704.483	0.0498	-0.0234	0.7915	1.9885	4.5264	-2.0599	19.0800 
704.483	0.0405	-0.0015	0.7944	1.9061	4.8065	-2.4060	19.1000 
704.483	0.0103	0.0332	0.8569	1.8512	5.1581	-2.8949	19.0800 
704.483	0.0059	0.0684	0.9111	1.8018	5.4932	-3.3344	19.0900 
704.503	-0.0103	0.0063	0.9468	1.7084	5.7074	-3.4113	19.0800 
704.522	-0.0039	-0.0405	0.9414	1.5656	5.8173	-3.3179	19.0900 
704.542	0.0249	0.0884	1.0283	1.4777	5.9930	-3.3728	19.0700 
704.561	0.0532	0.1704	1.0737	1.4777	6.1304	-3.3838	19.0800 
704.675	0.0576	0.1191	1.0640	1.5765	6.1249	-3.0707	19.0700 
704.702	0.0449	0.0649	0.9961	1.7029	6.0645	-2.6752	19.0700 
704.703	-0.0181	0.1094	1.0845	1.8402	6.1963	-2.4335	19.0800 
704.703	-0.0278	0.1763	1.1011	1.9940	6.3501	-2.1918	19.0700 
704.703	0.0610	0.2461	1.0376	2.1259	6.4215	-1.7578	19.0700 
704.703	0.1074	0.1909	1.0449	2.2028	6.4655	-1.2030	19.0700 
704.703	0.0317	0.0532	0.9395	2.2632	6.5259	-0.7416	19.0700 
704.721	-0.1040	-0.0552	1.0205	2.4005	6.8005	-0.4395	19.0500 
704.743	-0.3604	-0.1465	1.3496	2.6862	7.2620	-0.2032	19.0700 
704.761	-0.2549	0.0776	1.1187	3.0652	7.3663	-0.0275	19.0500 
704.782	-0.2764	0.0615	1.2959	3.3948	7.4213	0.5823	19.0800 
704.886	-0.2227	0.0356	1.0903	3.4222	7.3553	1.3293	19.0600 
704.902	-0.2690	-0.0781	1.1558	3.3069	7.4213	2.0160	19.0600 
704.902	-0.3086	-0.1060	1.2417	3.0817	7.6685	2.7356	19.0700 
704.902	-0.2373	-0.0410	1.3286	2.8619	7.7344	3.4003	19.0600 
704.902	-0.1045	0.1255	1.1768	2.7136	7.4817	4.0430	19.0500 
704.902	-0.0576	0.0781	0.9590	2.7026	7.0477	5.0262	19.0600 
704.920	-0.0474	-0.0078	0.7837	2.6807	6.5039	6.1304	19.0500 
704.943	-0.0801	0.0771	0.8008	2.5818	6.2183	6.7950	19.0400 
704.961	-0.0664	0.1895	0.7866	2.5159	6.0040	7.2070	19.0400 
704.980	-0.0190	0.1670	0.7554	2.4335	5.7074	7.9047	19.0400 
705.083	0.0000	0.0986	0.7275	2.2906	5.3613	8.7451	19.0400 
705.104	-0.0151	0.0967	0.8135	2.0380	5.1855	9.2230	19.0400 
705.104	-0.0479	0.1450	0.9175	1.8018	5.1471	9.3604	19.0500 
705.104	-0.0723	0.1221	0.9307	1.6315	5.0702	9.5471	19.0400 
705.104	-0.0708	0.1074	0.9399	1.4722	4.9329	9.8163	19.0500 
705.104	-0.0493	0.1367	1.0000	1.3293	4.8010	10.0195	19.0300 
705.122	-0.0469	0.1787	1.0327	1.2250	4.6582	10.1239	19.0400 
705.141	-0.0415	0.2373	1.0591	1.1646	4.5264	10.1459	19.0300 
705.160	-0.0313	0.2363	1.0703	1.1151	4.3231	10.2997	19.0200 
705.182	-0.0381	0.1616	1.0850	1.0712	4.0155	10.6073	19.0300 
705.290	-0.0356	0.0518	1.0605	1.0382	3.6255	10.8051	19.0300 
705.318	-0.0435	0.1006	1.0361	1.1206	3.3508	10.4700	19.0400 
705.319	-0.0132	0.2607	1.2095	1.3293	3.2300	9.8218	19.0300 
705.319	0.0464	0.1958	1.3691	1.5161	3.0103	9.5526	19.0300 
705.319	0.1792	0.0127	1.1909	1.6425	2.5269	9.6075	19.0200 
705.319	0.2261	-0.0796	1.3218	1.7029	2.3016	9.6515	19.0200 
705.319	0.2603	-0.1245	1.2026	1.6644	2.0709	9.6735	19.0200 
705.341	0.1978	-0.2002	1.1924	1.6260	1.9666	9.6295	19.0200 
705.359	0.1147	-0.2563	1.1289	1.4996	2.0160	9.2010	19.0200 
705.378	-0.0356	-0.1948	1.2891	1.3843	2.4664	8.2892	19.0100 
705.399	-0.0757	-0.0405	1.2021	1.3458	2.9279	7.1631	19.0200 
705.520	-0.0273	0.0791	1.0405	1.4282	3.2300	6.1578	19.0100 
705.536	0.1079	0.1807	0.6963	1.6150	3.3344	5.4767	19.0000 
705.536	0.0850	-0.0239	0.6768	1.6644	3.4827	5.2625	19.0100 
705.536	0.0073	-0.1914	0.6675	1.4282	3.7738	5.0208	19.0100 
705.536	-0.0146	-0.0732	0.8325	1.2524	4.3506	4.0540	19.0100 
705.536	0.0220	0.0835	0.9233	1.2360	4.8505	2.9333	19.0100 
705.537	0.0405	0.0615	0.9590	1.2085	5.1636	2.2412	19.0000 
705.555	0.0669	-0.0234	0.9561	1.0822	5.2734	1.9720	19.0100 
705.576	0.0503	-0.0664	1.0288	0.8734	5.4547	1.7413	19.0100 
705.596	0.0356	-0.0093	1.0200	0.6921	5.6635	1.2854	19.0000 
705.618	0.0381	0.0386	1.0479	0.6097	5.9052	0.7690	19.0000 
705.735	0.0688	0.1021	1.0220	0.6317	6.0699	0.3406	18.9800 
705.754	0.0527	0.1084	1.0156	0.7141	6.1963	0.1428	18.9800 
705.754	0.0015	0.0396	1.0313	0.7855	6.3171	0.1758	18.9900 
705.754	-0.0337	0.0107	1.0669	0.8075	6.4819	0.2582	18.9900 
705.754	-0.0039	0.0903	1.0552	0.8405	6.6687	0.3186	18.9800 
705.754	0.0493	0.1484	1.0361	0.9613	6.8005	0.4779	18.9900 
705.776	0.0864	0.0742	0.9307	1.1755	6.8335	0.8569	18.9800 
705.796	-0.0210	-0.0923	1.0034	1.4392	6.9379	1.3568	18.9700 
705.796	-0.2837	-0.1909	1.4077	1.6864	7.3718	1.4392	18.9800 
705.816	-0.2378	0.1704	1.2271	1.9830	7.7289	0.9833	18.9800 
705.839	-0.2974	0.2222	1.3120	2.3950	8.0695	1.0107	18.9800 
705.941	-0.2231	0.0059	0.9395	2.6257	8.0859	1.6589	18.9700 
705.952	-0.3301	-0.2563	1.2173	2.5214	8.4100	2.0819	18.9800 
705.952	-0.3179	-0.0815	1.3091	2.2961	8.8770	1.9775	18.9700 
705.952	-0.1973	0.1836	1.2925	2.2028	9.0033	1.8842	18.9500 
705.953	-0.1274	0.1377	1.0972	2.2632	8.7451	2.2467	18.9600 
705.975	-0.0688	-0.0322	0.8428	2.2687	8.3167	2.9224	18.9700 
705.975	-0.0684	0.0181	0.7622	2.1753	8.0035	3.2574	18.9500 
705.995	-0.0889	0.1294	0.7925	2.0984	7.8882	3.2739	18.9700 
706.018	-0.0830	0.1006	0.7666	2.0215	7.7069	3.4003	18.9500 
706.036	-0.0830	0.0254	0.7510	1.8842	7.5146	3.5815	18.9600 
706.121	-0.1006	0.0591	0.7788	1.7853	7.4103	3.5376	18.9600 
706.135	-0.1118	0.1187	0.8345	1.7413	7.3828	3.2959	18.9600 
706.135	-0.1025	0.1279	0.9443	1.6809	7.3224	3.1696	18.9700 
706.135	-0.0840	0.0791	0.9331	1.5875	7.1796	3.1696	18.9500 
706.135	-0.0825	0.0972	0.9727	1.5216	7.1191	3.0157	18.9400 
706.153	-0.0947	0.1543	0.9810	1.5491	7.1082	2.6587	18.9500 
706.173	-0.0889	0.2178	1.0103	1.6534	7.0807	2.2632	18.9500 
706.194	-0.1021	0.2295	1.0127	1.7853	7.0258	1.9061	18.9500 
706.215	-0.1152	0.1899	1.0474	1.8732	6.9324	1.6150	18.9500 
706.238	-0.1196	0.1724	1.0713	1.9501	6.8225	1.3239	18.9500 
706.334	-0.1274	0.1558	1.0488	2.0599	6.6907	1.0107	18.9600 
706.352	-0.1499	0.1675	1.0361	2.1753	6.6083	0.6372	18.9500 
706.353	-0.1631	0.2017	1.0400	2.2797	6.5533	0.2747	18.9500 
706.353	-0.1162	0.1909	1.0923	2.3840	6.4325	0.0659	18.9600 
706.353	-0.0049	0.0884	1.2754	2.4829	6.2018	0.0824	18.9500 
706.353	0.0396	-0.0103	1.3306	2.6202	5.8722	0.2692	18.9400 
706.370	0.0659	-0.1089	1.3867	2.6917	5.5975	0.5823	18.9400 
706.390	0.1128	-0.0239	1.1680	2.7356	5.2844	0.8405	18.9500 
706.411	0.0811	-0.0879	1.0771	2.6807	5.0977	1.0931	18.9500 
706.432	0.0693	-0.1880	1.1606	2.4445	5.0757	1.2744	18.9500 
706.552	-0.0869	-0.2075	1.3516	2.2028	5.3009	0.8569	18.9300 
706.570	-0.1089	0.0454	1.2930	2.1149	5.5701	-0.0659	18.9300 
706.572	-0.0381	0.1978	0.9937	2.2028	5.6415	-0.7196	18.9300 
706.572	-0.0293	-0.0132	0.8735	2.2192	5.6030	-0.7635	18.9300 
706.572	-0.0601	-0.1870	0.7539	2.0105	5.6580	-0.8899	18.9400 
706.573	-0.0488	-0.0244	0.8242	1.8292	5.9711	-1.5546	18.9400 
706.573	0.0161	0.1758	0.8730	1.8182	6.2238	-2.1204	18.9200 
706.590	0.0376	0.0454	0.8311	1.7908	6.1963	-2.1149	18.9300 
706.611	0.0396	-0.0737	0.8379	1.5820	6.1523	-2.0490	18.9200 
706.633	0.0005	-0.0103	0.9404	1.3458	6.3501	-2.4060	18.9100 
706.651	-0.0068	0.0508	0.9858	1.1700	6.5424	-2.7795	18.9200 
706.755	-0.0029	0.0176	0.9756	1.0217	6.6522	-2.9169	18.9100 
706.768	0.0361	0.0625	0.9629	0.9009	6.7072	-3.0432	18.9300 
706.768	0.0469	0.1318	0.9849	0.8679	6.8335	-3.2355	18.9300 
706.768	0.0151	0.1128	1.0142	0.9009	6.9543	-3.3289	18.9100 
706.768	0.0010	0.0635	0.9824	0.9558	7.0313	-3.3124	18.9200 
706.768	-0.0386	0.0547	1.0249	1.0272	7.1686	-3.3124	18.9100 
706.790	-0.0210	0.1226	1.0400	1.1371	7.3279	-3.3618	18.9200 
706.810	0.0742	0.2153	0.9668	1.3184	7.3883	-3.3289	18.9000 
706.830	0.1021	0.1724	0.9385	1.5326	7.4048	-3.1531	18.9000 
706.850	-0.0332	-0.0596	0.9268	1.7578	7.4597	-2.9004	18.8900 
706.970	-0.2251	-0.2031	1.1675	2.0105	7.7728	-2.7960	18.9200 
706.987	-0.3906	-0.1411	1.3931	2.3840	8.2507	-2.9553	18.9200 
706.988	-0.3354	0.0986	1.4258	2.7686	8.5419	-3.1366	18.9000 
706.988	-0.2681	0.1943	1.2944	3.0707	8.7396	-2.8510	18.9100 
706.989	-0.1597	0.0830	0.8608	3.2684	8.4979	-2.2961	18.9300 
706.989	-0.3398	-0.2559	1.2349	3.1311	8.8824	-1.7578	18.9100 
707.003	-0.3184	-0.2300	1.2295	2.8839	9.1846	-1.7578	18.9200 
707.024	-0.2251	-0.0132	1.2378	2.7136	9.3219	-1.9830	18.9100 
707.121	-0.1631	0.1235	1.0400	2.7521	9.1241	-1.7908	18.9000 
707.137	-0.1274	0.0698	0.8345	2.8674	8.6572	-1.1371	18.9000 
707.137	-0.1060	0.0391	0.6987	2.9004	8.2288	-0.4889	18.9000 
707.137	-0.1177	0.0430	0.7710	2.8235	7.9321	0.0879	18.9000 
707.137	-0.0903	0.0435	0.7144	2.6917	7.5586	0.6976	18.9000 
707.137	-0.1050	0.0127	0.7710	2.4994	7.2565	1.3239	18.9000 
707.154	-0.0684	0.0659	0.7603	2.3181	6.9434	1.7853	18.8800 
707.169	-0.0854	0.0801	0.8901	2.1698	6.7731	2.2357	18.8800 
707.188	-0.1099	0.0684	0.9292	2.0105	6.5808	2.6422	18.8700 
707.208	-0.0977	0.0571	0.9868	1.8677	6.4215	3.0212	18.8800 
707.229	-0.0703	0.1660	1.0107	1.7853	6.2952	3.3234	18.8900 
707.245	-0.0684	0.2051	0.9946	1.8127	6.1469	3.6859	18.8700 
707.346	-0.0840	0.1855	1.0122	1.8951	6.0040	4.1858	18.8700 
707.353	-0.0723	0.2173	1.0020	1.9830	5.8502	4.6033	18.8700 
707.354	-0.0542	0.2974	1.0596	2.0709	5.6854	4.9054	18.8700 
707.354	-0.0317	0.2925	1.0869	2.1094	5.4218	5.3394	18.8700 
707.354	-0.0874	0.1440	1.0576	2.0599	5.0537	6.0205	18.8600 
707.371	-0.1084	0.0684	1.0200	1.9720	4.7461	6.5533	18.8500 
707.386	-0.0474	0.2168	1.1040	1.9391	4.5813	6.6138	18.8700 
707.406	0.0596	0.3018	1.2549	2.0270	4.3506	6.6412	18.8700 
707.425	0.2178	0.1694	1.2437	2.1423	3.7463	7.1576	18.8700 
707.446	0.1968	-0.0269	1.2373	2.1533	3.0981	7.9047	18.8500 
707.568	0.2588	-0.2041	1.2773	1.9556	2.6697	8.5419	18.8400 
707.583	0.2178	-0.2505	1.2275	1.6754	2.4225	8.8055	18.8400 
707.584	0.0688	-0.2676	1.2402	1.4063	2.4609	8.4045	18.8600 
707.584	-0.0522	-0.1953	1.3115	1.1700	2.8400	7.4762	18.8700 
707.584	-0.1831	-0.1382	1.3491	1.0052	3.3234	6.5259	18.8700 
707.584	-0.0874	0.0181	1.0801	0.9943	3.4991	5.6635	18.8700 
707.584	0.0459	0.1992	0.7661	1.1591	3.5925	5.0757	18.8600 
707.603	0.0923	0.0708	0.6328	1.2854	3.6255	5.0757	18.8600 
707.626	0.0850	-0.1602	0.5830	1.1316	3.7134	5.3833	18.8500 
707.713	0.0107	-0.1558	0.8086	0.8734	4.2462	4.9438	18.8400 
707.745	-0.0220	-0.0142	0.8438	0.7800	4.8285	3.8287	18.8500 
707.745	-0.0098	-0.0034	0.9346	0.7361	5.3833	2.7686	18.8600 
707.745	0.0415	0.0400	0.9883	0.6812	5.7129	2.0544	18.8300 
707.745	0.0361	-0.0151	1.0347	0.5933	5.8777	1.7249	18.8400 
707.763	0.0420	-0.0688	0.9868	0.4669	5.8887	1.6370	18.8400 
707.763	0.0566	-0.0015	1.0098	0.4010	5.9491	1.4337	18.8500 
707.784	0.0791	0.0928	1.0376	0.5109	6.0535	1.0272	18.8300 
707.806	0.0728	0.1563	1.0361	0.7141	6.1523	0.6372	18.8400 
707.823	0.0205	0.1147	1.0400	0.9668	6.2567	0.5109	18.8300 
707.926	-0.0088	0.0752	1.0459	1.1865	6.3666	0.4834	18.8400 
707.935	-0.0195	0.1328	1.1152	1.3348	6.6138	0.3351	18.8400 
707.935	0.0356	0.2476	1.0791	1.4722	6.8170	0.0934	18.8300 
707.935	0.0806	0.2319	1.0518	1.6260	6.9379	0.0659	18.8300 
707.935	0.0171	-0.0308	0.9390	1.7578	7.0148	0.2197	18.8400 
707.963	-0.1123	-0.1157	1.0034	1.9006	7.3718	0.0494	18.8200 
707.983	-0.3467	-0.1294	1.4180	2.1973	7.9596	-0.3241	18.8300 
707.984	-0.2407	0.1367	1.1636	2.5983	8.0695	-0.7031	18.8300 
708.003	-0.2598	0.1235	1.1631	3.0927	8.1464	-0.3625	18.8400 
708.022	-0.3018	-0.0771	1.0317	3.3179	8.1189	0.2142	18.8500 
708.129	-0.2930	-0.0410	1.0713	3.2959	8.3112	0.2307	18.8400 
708.155	-0.2539	0.0967	1.2026	3.1750	8.5364	0.3131	18.8400 
708.155	-0.2104	-0.0820	1.3232	2.9828	8.4155	0.9283	18.8400 
708.156	-0.0869	-0.0952	1.0474	2.7356	7.8717	1.3678	18.8400 
708.156	-0.0762	0.0923	1.0669	2.6038	7.6410	1.3953	18.8400 
708.156	-0.0464	0.1719	0.8745	2.6147	7.2729	1.4941	18.8300 
708.174	-0.1191	0.0156	0.8257	2.5598	6.9434	1.9171	18.8200 
708.202	-0.1025	0.0044	0.7383	2.3840	6.5918	2.2577	18.8100 
708.220	-0.0933	0.0830	0.7998	2.2083	6.3281	2.4774	18.8100 
708.240	-0.0557	0.0918	0.7993	2.0819	5.9766	2.8125	18.8400 
708.240	-0.0493	0.0527	0.8193	1.9336	5.5811	3.2025	18.8300 
708.335	-0.0708	0.0288	0.8965	1.7194	5.2954	3.4442	18.8300 
708.360	-0.0596	0.0586	0.9082	1.4832	5.0592	3.4277	18.8000 
708.360	-0.0547	0.1147	0.9512	1.3458	4.9219	3.2959	18.8000 
708.360	-0.0459	0.1821	0.9604	1.3293	4.7955	3.3069	18.8200 
708.360	-0.0728	0.1123	0.9897	1.3074	4.6747	3.5266	18.8000 
708.360	-0.0723	0.1152	1.0366	1.2854	4.5428	3.7518	18.8100 
708.379	-0.0713	0.1714	1.0996	1.3184	4.4220	3.9221	18.8200 
708.400	-0.0381	0.1987	1.1118	1.3843	4.1748	4.1858	18.8200 
708.418	-0.0186	0.1865	1.0854	1.4612	3.8397	4.5703	18.8300 
708.438	-0.0059	0.1421	1.0967	1.5381	3.5211	4.9384	18.8100 
708.459	-0.0137	0.1533	1.0845	1.6425	3.2684	5.1086	18.8200 
708.479	-0.0015	0.1797	1.2627	1.7743	3.1201	5.1141	18.8300 
708.498	0.0713	0.1812	1.4019	1.8622	2.8894	5.1801	18.8100 
708.605	0.1377	0.1187	1.3130	1.9061	2.4609	5.4822	18.8000 
708.618	0.1108	-0.0342	1.2686	1.8732	2.0599	6.0040	18.8200 
708.618	0.1792	-0.1377	1.0239	1.7963	1.6699	6.5918	18.8000 
708.618	0.1553	-0.1714	0.9995	1.6589	1.5601	6.9983	18.8200 
708.618	0.1396	-0.2158	1.1226	1.3843	1.7303	6.9434	18.8100 
708.619	0.0586	-0.1987	1.1860	1.1096	2.0544	6.4984	18.8000 
708.640	-0.0859	-0.1396	1.2139	0.9174	2.5433	5.6689	18.8200 
708.661	-0.1079	-0.0591	1.1411	0.7745	2.9993	4.7736	18.8100 
708.676	-0.0562	0.0244	0.9858	0.6812	3.3783	4.1528	18.8000 
708.699	-0.0142	-0.0249	0.8623	0.5988	3.6584	3.9386	18.8100 
708.809	0.0562	-0.0713	0.7764	0.4889	3.9331	3.9001	18.8000 
708.819	0.0815	-0.0259	0.7681	0.4175	4.2682	3.6749	18.8100 
708.819	0.0552	0.0127	0.8369	0.4010	4.6472	3.2190	18.8100 
708.819	0.0195	0.0122	0.8281	0.3735	5.0098	2.7026	18.8100 
708.819	0.0132	-0.0122	0.8789	0.3186	5.3119	2.2687	18.7800 
708.819	0.0015	-0.0522	0.9390	0.2417	5.5591	2.0105	18.8000 
708.838	-0.0034	-0.0654	0.9751	0.1373	5.7513	1.8567	18.8000 
708.856	0.0596	0.0576	1.0073	0.0989	5.8942	1.6534	18.8000 
708.963	0.0781	0.0835	1.0342	0.1703	5.9985	1.5216	18.7900 
708.996	0.0762	0.0908	1.0381	0.3076	6.0480	1.4612	18.7900 
708.996	0.0483	0.0625	1.0361	0.4724	6.1029	1.4557	18.7800 
708.996	-0.0288	0.0093	1.0728	0.6372	6.2238	1.4777	18.7800 
708.996	-0.0488	0.0439	1.0894	0.8020	6.4050	1.3733	18.7900 
708.996	0.0503	0.2358	1.1089	0.9943	6.5533	1.2360	18.7800 
709.015	0.1099	0.2349	1.0830	1.2140	6.5588	1.3239	18.7900 
709.035	0.0815	0.0718	0.9482	1.4117	6.4709	1.5106	18.7800 
709.057	-0.0522	-0.0352	1.0156	1.6644	6.6193	1.4392	18.7600 
709.057	-0.2393	-0.0957	1.3198	2.0270	6.9434	1.0767	18.7500 
709.077	-0.2012	0.1089	1.2705	2.4170	7.1246	0.6042	18.7700 
709.188	-0.1821	0.1367	1.2725	2.8510	7.1906	0.7086	18.7700 
709.203	-0.2622	-0.1353	1.1650	3.0597	7.2125	1.1426	18.7800 
709.203	-0.2368	-0.0601	1.0596	3.0377	7.4817	0.9943	18.7700 
709.203	-0.2769	0.0181	1.1978	3.0103	7.9706	0.7855	18.7600 
709.203	-0.2607	-0.0688	1.3262	2.9169	8.2178	0.8679	18.7700 
709.203	-0.0991	0.0835	1.1274	2.7740	8.1738	0.8350	18.7500 
709.220	-0.0518	0.1343	1.0698	2.8070	8.0420	0.9283	18.7500 
709.237	-0.0107	0.0991	0.8232	2.8839	7.7014	1.1151	18.7600 
709.257	-0.0483	0.0400	0.8022	2.8619	7.5146	1.0986	18.7600 
709.278	-0.0347	0.0981	0.7241	2.8070	7.3389	0.8020	18.7600 
709.293	-0.0713	0.1304	0.7637	2.7740	7.2125	0.4065	18.7400 
709.312	-0.0601	0.1328	0.7236	2.7466	6.9928	0.0494	18.7500 
709.401	-0.0830	0.0981	0.8174	2.6532	6.8280	-0.2856	18.7400 
709.414	-0.0845	0.0874	0.8350	2.5104	6.6907	-0.6647	18.7500 
709.414	-0.1348	0.0405	0.9375	2.3401	6.6138	-1.0657	18.7200 
709.414	-0.1465	0.0801	0.9839	2.1863	6.5424	-1.5710	18.7400 
709.414	-0.0947	0.1924	0.9731	2.0654	6.4380	-2.0380	18.7300 
709.433	-0.0889	0.1538	0.9897	1.9446	6.3007	-2.2687	18.7400 
709.454	-0.0972	0.0811	0.9922	1.7743	6.1908	-2.4554	18.7300 
709.475	-0.1333	0.0698	1.0698	1.6370	6.1743	-2.8015	18.7500 
709.494	-0.1177	0.1821	1.1328	1.5930	6.1194	-3.3069	18.7500 
709.511	-0.0947	0.2051	1.1099	1.6534	5.9601	-3.7244	18.7300 
709.594	-0.0874	0.1089	1.0635	1.7578	5.7074	-3.9221	18.7200 
709.603	-0.1060	0.0918	1.0815	1.8402	5.5316	-4.1528	18.7500 
709.603	-0.0654	0.1914	1.3013	1.9336	5.4492	-4.4604	18.7600 
709.603	0.0215	0.1699	1.3872	2.0325	5.2350	-4.4659	18.7500 
709.622	0.1216	-0.0068	1.2739	2.1204	4.7571	-4.0375	18.7600 
709.654	0.1548	-0.0308	1.2612	2.1259	4.4330	-3.6694	18.7500 
709.669	0.1816	0.0020	1.0806	2.1149	4.1968	-3.5596	18.7300 
709.683	0.1484	-0.1221	1.1021	2.0105	4.1583	-3.5541	18.7300 
709.698	0.0605	-0.2168	1.1455	1.7853	4.3506	-3.9331	18.7400 
709.813	-0.0586	-0.1587	1.2334	1.6425	4.7736	-4.8450	18.7300 
709.836	-0.1250	-0.0347	1.1924	1.6150	5.2405	-6.0425	18.7300 
709.836	-0.1255	0.0801	1.0244	1.6040	5.6030	-7.0258	18.7400 
709.836	-0.0605	0.0947	0.8862	1.5491	5.8392	-7.5696	18.7200 
709.836	0.0068	-0.0298	0.7544	1.4063	6.0260	-7.7179	18.7100 
709.836	0.0181	-0.0996	0.7368	1.1920	6.2402	-7.9047	18.7400 
709.836	0.0181	-0.0234	0.7998	1.0217	6.5259	-8.3881	18.7300 
709.852	-0.0200	-0.0054	0.8599	0.9119	6.8445	-8.9703	18.7200 
709.872	-0.0225	-0.0479	0.8555	0.7690	7.0642	-9.4427	18.7100 
709.893	-0.0269	-0.0859	0.8965	0.5878	7.2839	-9.8218	18.7100 
709.909	-0.0483	-0.0327	1.0103	0.4340	7.5366	-10.2942	18.7200 
710.029	-0.0225	0.0801	1.0488	0.3461	7.7289	-10.6952	18.7100 
710.049	0.0308	0.1221	1.0493	0.3406	7.7344	-10.6348	18.7000 
710.049	0.0342	0.0073	1.0054	0.3625	7.6135	-10.1843	18.7200 
710.049	0.0044	-0.0327	0.9648	0.3900	7.5641	-9.8218	18.6900 
710.049	-0.0474	0.0332	1.0293	0.4999	7.6904	-9.6570	18.6900 
710.049	-0.0898	0.0532	1.0898	0.6812	7.8497	-9.3549	18.6700 
710.049	-0.0503	0.0859	1.0669	0.8624	7.9431	-8.9264	18.6700 
710.068	0.0742	0.2012	1.0229	1.1151	7.9761	-8.4760	18.6900 
710.172	0.0981	0.1533	0.9312	1.4612	7.8937	-7.8333	18.6800 
710.183	-0.1821	-0.2461	1.2168	1.7908	8.0255	-7.0697	18.6700 
710.183	-0.3154	-0.1729	1.2847	2.0764	8.3276	-6.9708	18.6700 
710.183	-0.2554	0.3540	1.0928	2.5049	8.5858	-7.1741	18.6700 
710.183	-0.3325	0.2305	1.1772	2.8949	8.8000	-6.5533	18.6700 
710.198	-0.2666	-0.1309	0.9395	2.9663	8.7177	-5.4822	18.6700 
710.226	-0.2905	-0.1909	1.2026	2.7576	8.9868	-4.7351	18.6700 
710.240	-0.2236	0.0288	1.3750	2.5269	9.1901	-4.2902	18.6500 
710.255	-0.1489	0.1362	1.2422	2.4445	9.0308	-3.8123	18.6700 
710.270	-0.0762	0.1089	1.0527	2.4554	8.6737	-3.1421	18.6600 
710.370	-0.0664	0.0537	0.9360	2.4554	8.2892	-2.3511	18.6700 
710.386	-0.0894	0.0327	0.7944	2.4060	7.9596	-1.7468	18.6700 
710.386	-0.1016	0.0864	0.8062	2.3566	7.7454	-1.3953	18.6700 
710.386	-0.0850	0.1362	0.7778	2.3511	7.4652	-1.0437	18.6500 
710.386	-0.0781	0.1118	0.8218	2.2961	7.1741	-0.5878	18.6400 
710.404	-0.0713	0.1118	0.8037	2.2028	6.8939	-0.1978	18.6500 
710.423	-0.1011	0.0737	0.8696	2.0544	6.7072	0.0879	18.6400 
710.446	-0.1177	0.1113	0.9302	1.9116	6.5808	0.2362	18.6400 
710.468	-0.1089	0.1270	0.9316	1.8292	6.4600	0.4340	18.6300 
710.468	-0.0952	0.1265	0.9604	1.7908	6.2787	0.7086	18.6400 
710.487	-0.0815	0.1860	0.9722	1.7633	6.1194	0.8789	18.6600 
710.605	-0.0298	0.3120	1.0000	1.7743	5.9326	0.9174	18.6400 
710.619	-0.0020	0.3120	1.0171	1.7633	5.6525	1.0986	18.6400 
710.619	-0.0522	0.1479	1.0522	1.6370	5.3009	1.5710	18.6500 
710.619	-0.1113	0.0322	1.0615	1.4612	4.9548	1.9666	18.6300 
710.619	-0.1484	0.1128	1.0762	1.3458	4.7736	1.7963	18.6300 
710.620	-0.1226	0.2832	1.1147	1.3239	4.6472	1.3129	18.6300 
710.637	-0.0815	0.2861	1.1450	1.4008	4.3396	1.1426	18.6300 
710.668	0.0732	0.1133	1.3027	1.4502	3.8232	1.4172	18.6300 
710.684	0.1431	0.0449	1.1494	1.5436	3.0652	1.7139	18.6200 
710.700	0.1792	-0.0562	1.2734	1.6425	2.5873	1.8677	18.6100 
710.716	0.2100	-0.1221	1.3896	1.5765	2.2852	2.1149	18.6100 
710.832	0.1836	-0.1997	1.2393	1.4063	1.9501	2.4115	18.6300 
710.853	0.1143	-0.2563	1.1548	1.1261	1.8127	2.3456	18.6100 
710.853	-0.0498	-0.2671	1.2974	0.8185	2.0874	1.9006	18.6000 
710.853	-0.1450	-0.2158	1.3315	0.6262	2.5653	1.1755	18.6100 
710.853	-0.0464	0.0425	1.0278	0.6537	2.8180	0.4230	18.5900 
710.853	0.0098	0.1616	0.8638	0.9009	3.0267	-0.0220	18.6000 
710.853	0.0913	0.0625	0.5972	1.1261	3.0597	0.0549	18.6000 
710.884	0.0713	-0.0938	0.6021	1.0822	3.1860	0.3076	18.6100 
710.985	0.0225	-0.1519	0.7813	0.8350	3.6035	0.0165	18.6000 
711.001	0.0005	-0.0547	0.9067	0.6592	4.2078	-0.7800	18.5700 
711.001	0.0249	0.1011	0.9785	0.6262	4.6857	-1.5601	18.5900 
711.001	0.0586	0.1094	0.9741	0.5933	4.9109	-1.8292	18.5900 
711.002	0.0620	-0.0693	0.9619	0.3955	4.9054	-1.4832	18.5800 
711.002	0.0688	-0.0796	0.9780	0.1208	4.9274	-1.1755	18.5800 
711.021	0.0581	0.1094	1.0537	0.0000	5.0922	-1.2305	18.5800 
711.043	0.0571	0.1333	1.0693	-0.0055	5.2130	-1.1536	18.5700 
711.057	0.0337	-0.0229	0.9907	0.0165	5.2460	-0.7416	18.5800 
711.080	0.0034	-0.0049	1.0366	0.0494	5.4163	-0.4834	18.5700 
711.106	-0.0220	0.1138	1.1064	0.1648	5.6854	-0.3241	18.5800 
711.121	-0.0029	0.1157	1.1348	0.3131	5.8887	0.0659	18.5800 
711.136	0.1147	0.1577	1.0503	0.4559	5.9711	0.5658	18.5700 
711.246	0.1431	0.1484	1.0376	0.6097	6.0809	0.9833	18.5700 
711.270	0.0347	0.0190	1.0073	0.7855	6.2677	1.2799	18.5700 
711.270	-0.1309	-0.1118	1.1123	0.9943	6.6687	1.4612	18.5700 
711.270	-0.2900	-0.0928	1.4116	1.2689	7.2125	1.4172	18.5700 
711.271	-0.2100	0.1963	1.2275	1.6644	7.4597	1.2415	18.5600 
711.271	-0.2646	0.1201	1.1548	2.1259	7.6025	1.6150	18.5700 
711.271	-0.2119	-0.0103	0.9316	2.3566	7.5806	2.3071	18.5600 
711.284	-0.2651	-0.1050	1.0352	2.3566	7.7618	2.8235	18.5600 
711.301	-0.2988	-0.1055	1.1860	2.2083	8.0420	3.2135	18.5900 
711.322	-0.2021	0.0254	1.2256	1.9885	8.0804	3.5815	18.5500 
711.340	-0.1270	0.0923	1.1660	1.8457	7.8607	4.0485	18.5600 
711.360	-0.0796	0.0063	0.9575	1.7688	7.4652	4.7791	18.5700 
711.464	-0.0840	-0.0220	0.9214	1.6425	7.1356	5.4437	18.5500 
711.486	-0.0483	0.0723	0.8047	1.4886	6.8774	5.8337	18.5500 
711.486	-0.0503	0.0962	0.8057	1.3788	6.6742	6.1633	18.5700 
711.486	-0.0303	0.0752	0.7471	1.2524	6.4215	6.5369	18.5600 
711.487	-0.0327	0.0786	0.7383	1.1096	6.1798	6.8170	18.5500 
711.487	-0.0610	0.1309	0.8228	0.9833	6.0370	6.8884	18.5600 
711.503	-0.0952	0.0684	0.8887	0.8514	5.8997	6.9818	18.5600 
711.523	-0.0967	0.0464	0.9170	0.6647	5.7239	7.0862	18.5500 
711.542	-0.0854	0.0972	0.9390	0.4944	5.5865	7.1246	18.5600 
711.559	-0.0830	0.1138	0.9688	0.4010	5.4327	7.2455	18.5500 
711.579	-0.0806	0.0708	0.9941	0.3461	5.2625	7.4817	18.5500 
711.688	-0.0815	0.0898	1.0649	0.3186	5.1251	7.6355	18.5600 
711.719	-0.0615	0.1948	1.0801	0.3900	4.9329	7.6410	18.5600 
711.719	-0.0493	0.2017	1.1201	0.5109	4.6857	7.6904	18.5500 
711.719	-0.0449	0.1235	1.0986	0.6097	4.3726	7.8333	18.5700 
711.719	-0.0581	0.0747	1.1064	0.6921	4.1034	7.8882	18.5600 
711.719	-0.0259	0.1118	1.2178	0.8240	3.9221	7.6904	18.5600 
711.720	0.0313	0.1304	1.4233	1.0217	3.7683	7.5366	18.5700 
711.740	0.1279	0.0522	1.4282	1.2195	3.3948	7.7124	18.5600 
711.838	0.1699	-0.0239	1.3345	1.3019	2.9828	8.0914	18.5600 
711.852	0.2397	-0.0352	1.0254	1.2854	2.6477	8.3331	18.5500 
711.852	0.1606	-0.1030	1.0449	1.2469	2.6038	8.3441	18.5600 
711.852	0.1147	-0.1797	1.0391	1.0547	2.7521	8.0530	18.5400 
711.852	-0.0029	-0.2163	1.1968	0.8514	3.1311	7.5092	18.5400 
711.871	-0.0776	-0.0918	1.1167	0.7581	3.4991	6.6632	18.5400 
711.898	-0.1011	-0.0181	1.0693	0.7471	3.8452	5.8722	18.5400 
711.918	-0.0459	-0.0073	0.9365	0.7416	4.0485	5.4602	18.5400 
711.919	-0.0029	-0.0762	0.8257	0.6592	4.1803	5.3833	18.5500 
711.938	0.0571	-0.1011	0.7871	0.5219	4.3671	5.3284	18.5400 
711.958	0.0742	-0.0435	0.8066	0.4449	4.6198	5.0482	18.5400 
711.982	0.0557	-0.0073	0.8862	0.4504	4.9219	4.6143	18.5300 
712.000	0.0488	-0.0083	0.8750	0.4724	5.1965	4.1418	18.5400 
712.098	0.0313	0.0186	0.9131	0.4724	5.4987	3.6475	18.5300 
712.108	0.0269	0.0356	0.9243	0.4395	5.7733	3.2520	18.5300 
712.108	0.0005	-0.0259	0.9424	0.3516	5.9821	3.0927	18.5300 
712.108	0.0229	0.0039	0.9155	0.2692	6.1304	2.9608	18.5300 
712.108	0.0391	0.0576	0.9810	0.2417	6.3226	2.7795	18.5300 
712.135	0.0420	0.1079	1.0288	0.3021	6.5094	2.6807	18.5400 
712.150	0.0059	0.0557	1.0518	0.4065	6.6302	2.8619	18.5300 
712.171	-0.0332	0.0005	1.0723	0.5054	6.7511	3.1860	18.5400 
712.266	-0.0161	0.1230	1.1050	0.5988	6.9214	3.3728	18.5400 
712.282	0.0718	0.2456	1.0913	0.7800	7.0258	3.4991	18.5400 
712.282	0.1558	0.1880	0.9966	0.9998	6.9873	3.8397	18.5300 
712.282	0.0542	-0.0098	0.9717	1.2085	6.9379	4.3616	18.5200 
712.282	-0.1797	-0.1284	1.1509	1.4117	7.1851	4.6198	18.5400 
712.282	-0.3115	-0.0830	1.4478	1.7249	7.6410	4.6088	18.5400 
712.307	-0.1519	0.2656	1.1470	2.1588	7.7069	4.6198	18.5400 
712.322	-0.2319	0.0854	1.2456	2.6202	7.7344	5.2405	18.5300 
712.338	-0.2139	-0.0933	0.9136	2.7795	7.6630	5.9381	18.5200 
712.355	-0.2539	-0.0454	1.0820	2.7686	7.9211	6.2128	18.5300 
712.374	-0.2866	-0.0552	1.2891	2.6752	8.1793	6.5479	18.5200 
712.459	-0.2280	-0.0786	1.2935	2.4884	8.1793	7.0587	18.5200 
712.467	-0.0879	0.1191	1.1260	2.3236	7.8882	7.3938	18.5300 
712.467	-0.0532	0.1279	1.0059	2.2687	7.5366	7.8772	18.5200 
712.467	-0.0430	0.0205	0.8569	2.2137	7.0422	8.6462	18.5300 
712.493	-0.0708	-0.0254	0.7808	2.0325	6.7181	9.2010	18.5100 
712.513	-0.0459	0.1060	0.7451	1.8677	6.4874	9.3109	18.5100 
712.533	-0.0537	0.1406	0.7529	1.7798	6.2238	9.5471	18.5200 
712.553	-0.0356	0.0508	0.7188	1.6150	5.8392	10.0415	18.5100 
712.668	-0.0566	0.0049	0.7988	1.3568	5.5865	10.3601	18.5100 
712.688	-0.0903	0.0503	0.9155	1.1536	5.4602	10.3436	18.5100 
712.688	-0.0591	0.1143	0.9517	0.9833	5.2570	10.2942	18.5100 
712.688	-0.0386	0.1230	0.9648	0.8624	5.0427	10.4095	18.5200 
712.688	-0.0391	0.1050	0.9575	0.7910	4.8505	10.6348	18.5200 
712.688	-0.0469	0.1030	0.9858	0.7031	4.7241	10.8051	18.5200 
712.688	-0.0752	0.1055	1.0723	0.6317	4.6417	10.8984	18.5100 
712.714	-0.0830	0.1299	1.0806	0.6042	4.5319	10.9369	18.5000 
712.734	-0.0547	0.1592	1.1279	0.6317	4.3506	11.0303	18.5100 
712.734	-0.0342	0.1519	1.1050	0.7141	4.0594	11.2170	18.5200 
712.754	-0.0244	0.1431	1.1045	0.8075	3.7628	11.4093	18.5100 
712.774	-0.0264	0.1826	1.0996	0.9393	3.5156	11.4642	18.5100 
712.880	0.0425	0.2310	1.2490	1.0931	3.3069	11.4697	18.5100 
712.903	0.1323	0.1929	1.3315	1.2195	2.9553	11.7279	18.5100 
712.903	0.1592	0.0205	1.3037	1.2689	2.4664	12.3212	18.5100 
712.903	0.1914	-0.1074	1.2222	1.1975	2.0105	12.9364	18.5200 
712.903	0.2314	-0.1899	1.1743	1.0767	1.7578	13.2825	18.4900 
712.903	0.1665	-0.2236	1.1641	0.9283	1.7523	13.1946	18.5000 
712.931	0.0688	-0.1777	1.1646	0.7635	1.9940	12.5903	18.5000 
712.952	-0.0771	-0.1587	1.2837	0.6042	2.4994	11.8048	18.4900 
712.952	-0.1372	-0.1313	1.1934	0.4779	2.9443	11.0577	18.4900 
712.973	-0.0830	-0.0195	1.0000	0.4010	3.2245	10.3601	18.4900 
712.991	0.0229	0.0923	0.8247	0.4120	3.5101	9.9097	18.4800 
713.101	0.0913	0.0049	0.7021	0.4010	3.6639	9.9371	18.4900 
713.118	0.0957	-0.1382	0.7329	0.2802	3.8837	10.0580	18.4900 
713.118	0.0679	-0.0620	0.7612	0.1868	4.3011	9.5911	18.4900 
713.118	0.0117	-0.0044	0.8589	0.2032	4.8395	8.7891	18.4900 
713.118	0.0146	-0.0054	0.8467	0.2252	5.2844	8.1244	18.4900 
713.120	-0.0005	-0.0303	0.9609	0.1758	5.6744	7.6740	18.4800 
713.136	0.0132	-0.0098	0.9731	0.0824	5.9381	7.3334	18.4800 
713.150	0.0400	-0.0117	1.0059	0.0000	6.1304	7.0807	18.4800 
713.172	0.0684	0.0122	1.0117	-0.0330	6.2677	6.7896	18.4900 
713.193	0.0620	0.0786	1.0537	0.0275	6.4819	6.4270	18.4700 
713.209	0.0454	0.1084	1.0571	0.1703	6.6797	6.0864	18.4700 
713.229	-0.0244	0.0679	1.0718	0.3131	6.8939	5.9271	18.4900 
713.346	-0.0479	0.0693	1.0947	0.4175	7.1191	5.8447	18.4700 
713.368	0.0122	0.1934	1.0825	0.5109	7.3334	5.7513	18.4800 
713.368	0.1138	0.2676	1.0376	0.6262	7.4158	5.7074	18.4800 
713.368	0.1191	0.0986	0.9761	0.7251	7.4432	5.9052	18.4700 
713.368	0.0210	-0.0522	0.9199	0.7800	7.4927	6.0919	18.4900 
713.368	-0.1992	-0.0801	1.0518	0.8679	7.8717	5.9052	18.4800 
713.369	-0.3149	-0.1265	1.2769	1.0876	8.3496	5.7129	18.4800 
713.389	-0.2578	0.0078	1.2085	1.3568	8.5144	5.6195	18.4800 
713.487	-0.2075	0.1030	1.2202	1.7688	8.5638	5.9601	18.4800 
713.501	-0.3027	-0.1187	1.2119	2.0050	8.5968	6.6577	18.4900 
713.501	-0.2832	-0.0688	1.0532	2.0380	8.7561	6.7401	18.4800 
713.501	-0.3076	0.0381	1.1587	2.0270	9.1626	6.6632	18.4900 
713.502	-0.3462	-0.1289	1.3721	1.9116	9.4153	7.0642	18.4800 
713.522	-0.1870	-0.0576	1.1548	1.6864	9.2340	7.3279	18.4800 
713.539	-0.1240	0.1128	1.0820	1.6150	9.1296	7.4487	18.4600 
713.554	-0.0693	0.1226	0.8608	1.6864	8.7946	7.8058	18.4700 
713.569	-0.1035	-0.0132	0.7290	1.6589	8.5089	8.2452	18.4700 
713.591	-0.1177	0.0415	0.7314	1.5546	8.3441	8.3386	18.4800 
713.606	-0.1001	0.1323	0.7407	1.4941	8.1299	8.3826	18.4700 
713.709	-0.0884	0.0840	0.7363	1.4227	7.8442	8.5968	18.4600 
713.717	-0.0757	0.0669	0.7930	1.3019	7.5476	8.8495	18.4800 
713.717	-0.0776	0.0508	0.8862	1.1261	7.3004	9.0198	18.4800 
713.717	-0.1094	0.0469	0.9819	0.9338	7.1301	9.0088	18.4600 
713.717	-0.0991	0.1021	1.0151	0.7965	7.0093	8.9099	18.4700 
713.734	-0.0938	0.1602	1.0039	0.7800	6.8774	8.8824	18.4800 
713.765	-0.0962	0.1167	0.9443	0.8020	6.7181	9.0253	18.4700 
713.786	-0.1138	0.0781	0.9951	0.8185	6.6357	9.1516	18.4600 
713.799	-0.1250	0.1343	1.0654	0.8734	6.5588	9.1516	18.4900 
713.915	-0.0864	0.2109	1.0933	1.0052	6.3446	9.1406	18.4700 
713.941	-0.0791	0.1987	1.1094	1.1591	6.0480	9.2615	18.4600 
713.942	-0.0933	0.1450	1.0659	1.2909	5.7404	9.4812	18.4600 
713.942	-0.1338	0.0898	1.0903	1.4008	5.5151	9.6680	18.4600 
713.942	-0.1079	0.1323	1.1938	1.5051	5.3558	9.7009	18.4600 
713.942	-0.0181	0.1797	1.3286	1.6809	5.1251	9.7559	18.4600 
713.942	0.1235	0.1421	1.2759	1.9061	4.6307	10.1074	18.4600 
713.961	0.1660	0.0215	1.2671	2.0490	4.1034	10.7062	18.4600 
713.974	0.1953	-0.0996	1.1099	2.0654	3.6694	11.2830	18.4700 
713.988	0.1597	-0.1157	1.0903	2.0325	3.4552	11.5576	18.4600 
714.005	0.0625	-0.2148	1.0767	1.9061	3.4387	11.4972	18.4500 
714.024	-0.0459	-0.2227	1.2373	1.7139	3.6804	11.0193	18.4600 
714.136	-0.1157	-0.0557	1.2251	1.5875	4.0594	10.2502	18.4400 
714.143	-0.1050	0.0391	1.1094	1.5930	4.2792	9.5856	18.4400 
714.143	-0.0122	0.0903	0.8545	1.6644	4.3890	9.3274	18.4500 
714.143	0.0093	-0.0166	0.7642	1.6809	4.4879	9.4592	18.4500 
714.143	0.0640	-0.0771	0.7192	1.5765	4.6472	9.6240	18.4400 
714.143	0.0386	-0.0229	0.7715	1.4777	4.9878	9.4263	18.4300 
714.166	-0.0073	0.0293	0.8740	1.4612	5.4108	8.9594	18.4400 
714.184	-0.0029	0.0220	0.8608	1.4117	5.7404	8.5913	18.4300 
714.204	-0.0122	-0.0078	0.9595	1.2909	6.0260	8.3606	18.4400 
714.224	0.0029	0.0151	0.9458	1.1316	6.2347	8.1793	18.4300 
714.243	-0.0024	0.0146	1.0313	0.9833	6.4380	8.2178	18.4400 
714.262	0.0308	0.0527	1.0059	0.8624	6.5533	8.3276	18.4400 
714.342	0.0513	0.0947	1.0503	0.8075	6.6357	8.4650	18.4300 
714.350	0.0522	0.0762	1.0347	0.8350	6.6522	8.7286	18.4400 
714.350	0.0151	0.0337	1.0332	0.8899	6.7017	9.0582	18.4400 
714.350	-0.0640	0.0459	1.0889	0.9613	6.8829	9.3109	18.4400 
714.382	-0.0674	0.0815	1.1182	1.0492	7.0862	9.5801	18.4400 
714.402	0.0620	0.1914	1.0527	1.1920	7.1576	9.9207	18.4300 
714.416	0.1133	0.1831	1.0234	1.4063	7.1576	10.3546	18.4300 
714.435	0.0869	0.0698	0.9307	1.7029	7.1136	10.7666	18.4300 
714.560	-0.0669	-0.0674	1.0513	2.0874	7.2510	11.0632	18.4300 
714.567	-0.2695	-0.0913	1.3262	2.5653	7.5311	10.9973	18.4200 
714.567	-0.1938	0.2153	1.0518	3.1256	7.5366	10.6403	18.4100 
714.567	-0.3955	-0.0273	1.3071	3.5980	7.7563	11.1182	18.4200 
714.567	-0.3091	-0.1226	0.9404	3.8177	7.6575	11.6510	18.4100 
714.568	-0.3125	-0.0415	1.2202	3.9386	7.8992	11.9696	18.4300 
714.568	-0.2808	0.0874	1.3052	3.9496	8.0365	12.3926	18.4100 
714.585	-0.1216	0.0947	1.3784	3.8452	7.8223	13.2001	18.4100 
714.603	0.0020	0.0679	1.1260	3.7903	7.3004	14.0845	18.4200 
714.701	-0.0049	0.1001	0.9810	3.8123	6.9214	14.6338	18.4100 
714.722	-0.0073	0.2070	0.8740	3.8727	6.6522	14.8480	18.4000 
714.722	-0.0625	0.0825	0.8022	3.8342	6.3940	15.1447	18.4000 
714.722	-0.0605	0.0747	0.7388	3.6639	6.1633	15.2655	18.4100 
714.722	-0.0513	0.1694	0.7427	3.4991	6.0205	15.1117	18.4100 
714.722	-0.0640	0.1577	0.7427	3.3289	5.8887	14.9799	18.4000 
714.741	-0.0669	0.0850	0.7646	3.1036	5.7733	14.9579	18.3900 
714.761	-0.0947	0.0254	0.8540	2.8070	5.7294	14.8920	18.4000 
714.780	-0.1011	0.0728	0.9722	2.5323	5.7349	14.6777	18.4000 
714.803	-0.0845	0.1460	1.0376	2.3401	5.7568	14.4086	18.4000 
714.896	-0.0532	0.1577	1.0293	2.2137	5.6689	14.2932	18.3800 
714.920	-0.0527	0.1177	1.0142	2.1313	5.5646	14.2712	18.4000 
714.920	-0.0713	0.1870	1.0854	2.1039	5.5536	14.0570	18.3900 
714.920	-0.0547	0.2422	1.1118	2.1533	5.5261	13.7659	18.3800 
714.920	-0.0693	0.1372	1.1289	2.2522	5.3778	13.7000	18.3800 
714.936	-0.0933	0.1030	1.0757	2.3456	5.1965	13.6121	18.3900 
714.959	-0.1152	0.2476	1.0796	2.4939	5.1031	13.2550	18.3700 
714.979	-0.0718	0.2690	1.0845	2.6807	4.9603	13.0078	18.3700 
715.000	0.0659	0.1431	1.2090	2.8235	4.6692	13.1067	18.3700 
715.000	0.1230	0.0454	1.1255	2.9333	4.2297	13.3319	18.3800 
715.019	0.1729	-0.0264	1.2817	2.9608	3.9716	13.4253	18.3800 
715.045	0.2290	-0.0571	1.3032	2.8894	3.7848	13.5297	18.3800 
715.058	0.1631	-0.2100	1.1650	2.6862	3.5266	13.7384	18.3800 
715.161	0.0425	-0.3208	1.1729	2.4335	3.4882	13.7329	18.3900 
715.166	-0.2310	-0.3086	1.4141	2.1698	4.0375	12.9584	18.3800 
715.167	-0.2354	-0.0518	1.3677	2.0105	4.6802	11.6620	18.3700 
715.167	-0.0630	0.2573	1.0981	2.0764	4.9219	10.8215	18.3500 
715.167	0.0581	0.1558	0.8032	2.2083	4.7791	10.8765	18.3500 
715.185	0.1094	-0.1724	0.6099	2.1149	4.5428	11.5741	18.3500 
715.217	0.0723	-0.1255	0.6802	1.8896	4.6857	11.7773	18.3400 
715.231	-0.0093	-0.0024	0.7915	1.7633	5.2679	10.9589	18.3400 
715.260	-0.0830	0.0356	0.8057	1.7358	5.7678	10.1953	18.3500 
715.260	-0.0825	-0.0190	0.8472	1.5985	6.1029	9.8108	18.3500 
715.382	-0.0439	-0.0928	0.9526	1.3678	6.2952	9.7174	18.3400 
715.402	-0.0103	-0.0405	0.9785	1.1426	6.4050	9.6680	18.3200 
715.402	0.0342	0.0278	1.0220	1.0107	6.4545	9.7778	18.3400 
715.402	0.0566	0.0156	0.9922	0.9283	6.3776	10.1733	18.3400 
715.402	0.0308	-0.0195	1.0142	0.8679	6.3446	10.6073	18.3400 
715.402	-0.0186	0.0205	1.0527	0.8899	6.4270	10.9094	18.3300 
715.402	-0.0640	0.0884	1.0977	1.0162	6.5149	11.2885	18.3100 
715.417	-0.0474	0.0825	1.0967	1.1865	6.4984	11.9366	18.3400 
715.437	0.0527	0.1572	1.0391	1.3568	6.4270	12.6782	18.3200 
715.541	0.1265	0.1963	1.0137	1.5326	6.3281	13.4253	18.3200 
715.550	0.1123	0.0698	1.0083	1.7084	6.2183	14.2987	18.3300 
715.551	-0.0435	-0.1460	1.1089	1.8787	6.2238	15.1831	18.3200 
715.551	-0.2510	-0.0835	1.3115	2.0984	6.5094	15.3314	18.3100 
715.551	-0.1904	0.2690	1.1733	2.4280	6.6962	15.1886	18.3000 
715.570	-0.3066	0.0674	1.2671	2.7521	6.7896	15.9412	18.3200 
715.583	-0.1724	0.0078	0.7773	2.8400	6.5424	16.7926	18.3200 
715.599	-0.2520	-0.0649	1.1499	2.7301	6.8665	17.4683	18.3100 
715.617	-0.2305	-0.0146	1.1387	2.5269	7.0093	18.0560	18.3100 
715.640	-0.1455	0.1069	1.2710	2.2742	6.9928	18.6053	18.3000 
715.742	-0.0513	0.1821	1.1035	2.1423	6.6248	19.2426	18.2900 
715.750	0.0000	0.0757	0.8955	2.0599	6.1029	20.1599	18.3000 
715.750	-0.0205	-0.0142	0.8472	1.8842	5.5811	21.0608	18.2900 
715.750	-0.0410	0.0229	0.7637	1.6095	5.2405	21.5607	18.2900 
715.750	-0.0552	0.1138	0.8315	1.4008	5.0647	21.7090	18.2900 
715.774	-0.0151	0.1299	0.7759	1.2634	4.8120	21.9232	18.2800 
715.792	-0.0127	0.0566	0.7866	1.0931	4.4989	22.2858	18.3000 
715.813	-0.0200	0.0557	0.8687	0.8514	4.3011	22.4286	18.2900 
715.837	-0.0405	0.0840	0.9219	0.6647	4.1583	22.3132	18.2900 
715.837	-0.0469	0.1250	0.9839	0.5164	4.0649	22.1265	18.2900 
715.859	-0.0386	0.1040	0.9937	0.4175	3.9441	22.0441	18.2800 
715.965	-0.0430	0.1021	0.9805	0.3406	3.8507	21.9452	18.2900 
715.990	-0.0308	0.1851	1.0137	0.3186	3.8232	21.6541	18.2800 
715.990	-0.0039	0.2456	1.0410	0.3625	3.7518	21.3519	18.2800 
715.990	0.0127	0.1841	1.0630	0.3845	3.5870	21.2640	18.2700 
715.990	-0.0122	0.1128	1.0718	0.3406	3.4058	21.2091	18.2800 
715.990	-0.0278	0.1206	1.0518	0.3186	3.2520	20.9619	18.2900 
716.010	-0.0771	0.1709	1.1260	0.3625	3.2245	20.5005	18.3000 
716.035	-0.0596	0.1953	1.1353	0.4010	3.1421	20.0336	18.2900 
716.035	0.0400	0.1313	1.2793	0.4175	2.9773	19.7534	18.3000 
716.054	0.1470	0.0923	1.3726	0.4614	2.6642	19.6161	18.2900 
716.075	0.1597	-0.0059	1.3252	0.5438	2.2247	19.6271	18.2800 
716.178	0.1357	-0.1675	1.3398	0.5438	1.8951	19.7754	18.2600 
716.204	0.2080	-0.1289	1.0713	0.4779	1.5546	19.8248	18.2800 
716.204	0.0938	-0.2324	1.0913	0.3131	1.6315	19.6875	18.2800 
716.204	0.0801	-0.2349	1.0679	0.0055	1.8457	19.2041	18.2900 
716.204	-0.1079	-0.2695	1.2930	-0.2747	2.3456	18.4680	18.2800 
716.204	-0.0664	-0.1831	1.1870	-0.4340	2.6312	17.4957	18.2900 
716.218	-0.0098	0.0215	1.0630	-0.4230	2.9004	16.4246	18.2900 
716.235	0.0156	0.0405	0.9355	-0.3571	3.0597	15.6830	18.2800 
716.253	0.0156	-0.1294	0.8042	-0.4230	3.2025	15.3204	18.2600 
716.274	0.0181	-0.1567	0.7622	-0.5658	3.4497	14.8425	18.2700 
716.371	0.0381	-0.0742	0.8042	-0.6262	3.8727	13.8647	18.2700 
716.384	0.0293	0.0078	0.8481	-0.5933	4.3451	12.6068	18.2700 
716.384	0.0190	0.0508	0.8589	-0.5164	4.7131	11.5356	18.2600 
716.384	-0.0117	-0.0142	0.8745	-0.4724	4.9878	10.9149	18.2400 
716.384	-0.0083	-0.0674	0.8882	-0.5328	5.2350	10.4810	18.2600 
716.405	-0.0151	-0.0586	0.8999	-0.6152	5.5042	10.0360	18.2500 
716.430	0.0308	0.0166	0.9478	-0.6317	5.7733	9.5197	18.2500 
716.451	0.0278	0.0698	0.9946	-0.5438	5.9930	9.0088	18.2700 
716.451	0.0376	0.1206	1.0342	-0.3790	6.1249	8.6737	18.2700 
716.472	0.0254	0.0918	1.0283	-0.2032	6.2073	8.6133	18.2600 
716.573	0.0220	0.0591	1.0137	0.0110	6.2512	8.7451	18.2600 
716.583	0.0356	0.1011	1.0200	0.2197	6.3171	8.8660	18.2300 
716.583	0.1265	0.2437	1.0195	0.4559	6.3831	8.9044	18.2400 
716.583	0.1772	0.2588	1.0063	0.6921	6.4160	8.9978	18.2500 
716.583	0.0371	-0.0073	0.9961	0.8405	6.5094	9.2395	18.2500 
716.608	-0.0811	-0.0576	1.0073	0.9723	6.8170	9.2450	18.2400 
716.631	-0.2485	-0.0425	1.2759	1.3019	7.3279	9.1681	18.2300 
716.650	-0.2686	-0.0615	1.3950	1.7963	7.6300	9.3878	18.2500 
716.650	-0.0752	0.1943	1.1392	2.2632	7.5970	9.6130	18.2500 
716.674	-0.1621	0.1055	1.2969	2.5708	7.7673	10.0525	18.2500 
716.783	-0.2056	-0.1191	0.9609	2.5818	7.9102	10.4810	18.2300 
716.800	-0.3472	-0.2373	1.1460	2.4225	8.3881	10.5304	18.2400 
716.800	-0.3975	-0.2256	1.4224	2.2247	8.9154	10.3601	18.2300 
716.800	-0.2012	0.0435	1.2290	2.0654	8.9154	10.2008	18.2200 
716.800	-0.0884	0.1421	1.0981	2.1094	8.6847	10.5139	18.2200 
716.800	-0.0244	0.0996	0.8638	2.2192	8.1848	11.2555	18.2300 
716.830	-0.0552	0.0435	0.8145	2.2412	7.8717	11.9421	18.2100 
716.849	-0.0264	0.1118	0.7065	2.2192	7.5256	12.3376	18.2200 
716.850	-0.0410	0.0776	0.7891	2.1753	7.2675	12.6563	18.2100 
716.872	-0.0171	0.0679	0.7329	2.1149	6.8719	12.9858	18.2100 
716.889	-0.0508	0.0674	0.8008	2.0544	6.5753	13.1836	18.2000 
716.996	-0.0454	0.0854	0.8403	2.0105	6.2732	13.2220	18.1900 
717.018	-0.0464	0.0708	0.8960	1.9446	5.9985	13.2056	18.2100 
717.019	-0.0532	0.0791	0.9404	1.8787	5.7788	13.1506	18.1900 
717.019	-0.0562	0.1362	0.9277	1.8622	5.6085	13.0408	18.2100 
717.019	-0.0698	0.1426	0.9878	1.8951	5.4877	13.0463	18.2000 
717.019	-0.0474	0.1582	0.9712	1.9281	5.2954	13.1232	18.1900 
717.045	-0.0425	0.1895	0.9824	1.9940	5.0427	13.1451	18.1900 
717.069	-0.0645	0.1929	1.0327	2.0984	4.8450	13.1342	18.1800 
717.070	-0.0557	0.1646	1.0767	2.1423	4.5868	13.1891	18.1800 
717.090	-0.0449	0.1445	1.0728	2.1423	4.2572	13.3044	18.1800 
717.108	-0.0400	0.1851	1.0322	2.1918	3.9056	13.3154	18.1700 
717.217	-0.0273	0.2339	1.0713	2.3016	3.5815	13.2111	18.1800 
717.234	0.1123	0.2383	1.2979	2.3895	3.1915	13.2275	18.1900 
717.234	0.2236	0.1875	1.2217	2.4335	2.5543	13.5187	18.1900 
717.234	0.1958	-0.0205	1.2075	2.3785	2.0105	13.9966	18.1800 
717.234	0.2842	-0.0869	1.2231	2.1698	1.6205	14.4580	18.1800 
717.234	0.2085	-0.3154	1.3882	1.7908	1.4722	14.9689	18.1800 
717.252	0.1221	-0.3760	1.2266	1.4008	1.3678	15.0513	18.1600 
717.268	-0.0669	-0.2329	1.3496	1.0931	1.8347	14.2657	18.1900 
717.288	-0.1709	-0.1094	1.3560	0.9283	2.4664	13.1891	18.1800 
717.305	-0.1099	0.0049	1.0942	0.9009	2.7850	12.4750	18.1900 
717.324	0.0020	0.0864	0.8320	0.9668	2.9169	12.0520	18.1700 
717.429	0.1172	0.0752	0.6123	1.0822	3.0157	12.0081	18.1700 
717.447	0.1094	-0.0762	0.5767	1.0602	3.1586	12.2443	18.1800 
717.447	-0.0063	-0.1426	0.7754	0.8844	3.6694	12.0685	18.1500 
717.447	-0.0195	-0.0083	0.8311	0.8020	4.2847	11.2610	18.1800 
717.447	-0.0151	0.0396	0.8955	0.7635	4.7955	10.5908	18.1600 
717.447	0.0239	0.0127	0.9131	0.6262	5.1361	10.3271	18.1600 
717.466	0.0190	-0.0835	1.0215	0.4175	5.3613	10.4480	18.1700 
717.485	0.0293	-0.0737	1.0449	0.2197	5.5096	10.5304	18.1500 
717.507	0.0801	0.0415	1.0410	0.1538	5.6250	10.4041	18.1800 
717.528	0.0981	0.1167	1.0513	0.2362	5.7129	10.2393	18.1700 
717.543	0.0605	0.0576	1.0449	0.3955	5.7623	10.3107	18.1800 
717.652	-0.0024	-0.0317	1.0654	0.4999	5.8667	10.5743	18.1600 
717.662	-0.0522	0.0122	1.1216	0.5933	6.0699	10.7172	18.1800 
717.662	-0.0107	0.1436	1.0889	0.7635	6.2457	10.7501	18.1600 
717.662	0.1089	0.2090	1.0244	0.9943	6.2952	10.9589	18.1600 
717.662	0.1519	0.1089	0.9595	1.1920	6.2402	11.3818	18.1700 
717.662	-0.0171	-0.1216	1.0190	1.4008	6.2677	11.7279	18.1600 
717.683	-0.1953	-0.1675	1.2368	1.6864	6.6193	11.5027	18.1700 
717.703	-0.2212	0.1655	1.2817	2.0599	6.9873	10.7611	18.1600 
717.802	-0.2217	0.2695	1.2954	2.5049	7.2070	10.4041	18.1600 
717.818	-0.2144	0.0396	0.9541	2.7740	7.2015	10.6787	18.1600 
717.819	-0.2026	-0.0327	0.8735	2.7905	7.2729	10.8710	18.1700 
717.819	-0.2954	-0.1118	1.0942	2.5873	7.7179	10.8929	18.1600 
717.819	-0.3203	-0.1494	1.2612	2.2797	8.1024	10.8820	18.1500 
717.835	-0.1753	0.0703	1.2188	2.0050	8.2672	10.7172	18.1500 
717.860	-0.1465	0.1157	1.1914	1.9226	8.1903	10.6622	18.1400 
717.884	-0.0957	0.0137	0.8999	1.8951	7.9102	10.9314	18.1500 
717.884	-0.1235	-0.0688	0.8569	1.7578	7.7124	11.1072	18.1400 
717.903	-0.1333	0.1079	0.8062	1.5601	7.7124	10.7831	18.1500 
718.000	-0.1377	0.1440	0.8423	1.4337	7.7289	10.4974	18.1500 
718.016	-0.1157	-0.0146	0.7778	1.2689	7.5421	10.6128	18.1300 
718.017	-0.1162	-0.0537	0.7925	1.0162	7.3938	10.6732	18.1500 
718.017	-0.1279	0.0103	0.8784	0.7910	7.3444	10.4095	18.1400 
718.017	-0.1460	0.0547	0.9561	0.6262	7.2620	10.1294	18.1500 
718.035	-0.1494	0.0195	0.9370	0.4724	7.1301	9.9481	18.1300 
718.060	-0.1270	0.0742	0.9063	0.3790	7.0532	9.6625	18.1300 
718.081	-0.1133	0.1426	0.9077	0.3955	7.0093	9.3549	18.1400 
718.100	-0.1143	0.1377	0.9336	0.4504	6.9214	9.1956	18.1500 
718.202	-0.1084	0.1060	0.9521	0.4449	6.7566	9.1132	18.1400 
718.216	-0.1323	0.1074	1.0308	0.4230	6.6083	8.9429	18.1400 
718.216	-0.1382	0.1401	1.0728	0.4285	6.4490	8.7616	18.1300 
718.216	-0.1050	0.1426	1.0591	0.4779	6.2018	8.7177	18.1300 
718.216	-0.1069	0.0967	1.0918	0.5109	5.9436	8.8055	18.1300 
718.216	-0.1123	0.1240	1.1089	0.5164	5.7184	8.8440	18.1200 
718.239	-0.0781	0.1938	1.1270	0.5438	5.5096	8.8824	18.1400 
718.259	-0.0166	0.1001	1.2373	0.6042	5.2295	9.2120	18.1400 
718.280	0.0190	0.0215	1.2612	0.6757	4.8724	9.6295	18.1300 
718.300	0.0400	0.0586	1.3281	0.8075	4.6088	9.7943	18.1300 
718.301	0.0581	0.0981	1.3354	0.9448	4.4055	9.9536	18.1300 
718.322	0.1533	0.0493	0.9512	1.0217	4.0210	10.4095	18.1400 
718.344	0.1582	-0.1050	0.9434	0.9064	3.8562	10.9918	18.1200 
718.358	0.1392	-0.2451	1.0093	0.6152	3.9276	11.2830	18.1100 
718.377	0.0112	-0.2876	1.2217	0.3735	4.2902	11.0687	18.1200 
718.483	-0.0986	-0.1299	1.2388	0.2966	4.6362	10.2173	18.1100 
718.500	-0.1533	-0.0317	1.2295	0.3021	4.9329	9.3274	18.1000 
718.500	-0.0801	-0.0220	1.0640	0.2582	5.0262	8.9044	18.1200 
718.500	-0.0415	-0.1104	0.9375	0.1593	5.0208	9.0033	18.1100 
718.500	0.0527	-0.0347	0.8320	0.0989	5.0867	9.1406	18.1200 
718.500	0.0845	0.0762	0.8130	0.1868	5.2679	9.0857	18.1200 
718.518	0.0449	0.0190	0.8364	0.2911	5.4602	9.1022	18.1000 
718.542	0.0225	-0.0029	0.8169	0.3021	5.6854	9.0198	18.0800 
718.556	0.0103	0.0552	0.9229	0.2856	6.0040	8.7122	18.0800 
718.579	0.0151	0.0210	0.9219	0.2252	6.2567	8.5474	18.0900 
718.687	-0.0239	-0.1108	0.9697	0.0659	6.5039	8.5748	18.1000 
718.698	-0.0015	-0.0142	0.9785	-0.0934	6.7676	8.3551	18.0900 
718.698	0.0195	0.0918	1.1001	-0.1208	7.0148	8.1079	18.0800 
718.698	0.0215	0.0479	1.0640	-0.0604	7.1191	8.1683	18.0800 
718.699	0.0054	0.0000	1.0361	0.0439	7.1466	8.3551	18.0700 
718.699	-0.0088	0.0747	1.0474	0.1923	7.2400	8.3936	18.0600 
718.717	-0.0298	0.0962	1.0698	0.3845	7.3773	8.4924	18.0600 
718.737	-0.0088	0.1045	1.0439	0.5548	7.4707	8.7286	18.0600 
718.761	0.0430	0.1445	1.0444	0.7141	7.5641	8.9978	18.0500 
718.780	0.0557	0.1401	1.0464	0.8679	7.6465	9.2230	18.0500 
718.798	0.0068	0.1021	1.0649	1.0382	7.7454	9.2889	18.0500 
718.919	-0.1196	-0.0127	1.2500	1.2305	7.9596	9.2780	18.0600 
718.934	-0.1528	0.1152	1.2202	1.4063	8.1628	8.9209	18.0700 
718.934	-0.1768	0.1689	1.2354	1.6315	8.3606	8.5583	18.0600 
718.934	-0.2075	0.0747	1.0396	1.8732	8.4045	8.6462	18.0500 
718.934	-0.2607	-0.1597	0.8828	1.9885	8.5364	8.7341	18.0400 
718.935	-0.3003	-0.1450	0.9551	1.9501	8.8824	8.4760	18.0500 
718.953	-0.3633	-0.1328	1.1826	1.8127	9.1901	8.2837	18.0400 
718.981	-0.3037	-0.0195	1.2329	1.6315	9.2944	8.2343	18.0500 
718.990	-0.1626	0.1279	1.1851	1.5710	9.1516	8.5364	18.0400 
719.003	-0.1055	0.0210	1.0957	1.5875	8.7671	9.3054	18.0400 
719.124	-0.0400	-0.0615	0.9097	1.4667	8.4045	9.9591	18.0500 
719.133	-0.0469	0.0186	0.8760	1.3568	8.2617	10.0690	18.0500 
719.133	-0.0605	0.1479	0.7866	1.3788	8.1189	9.8822	18.0400 
719.133	-0.0933	0.1284	0.7671	1.4392	7.9321	9.7614	18.0400 
719.133	-0.1021	0.1074	0.7910	1.4502	7.7069	9.6844	18.0300 
719.134	-0.1011	0.0972	0.8145	1.4063	7.4762	9.6185	18.0400 
719.153	-0.0884	0.0996	0.8872	1.3184	7.2729	9.5636	18.0400 
719.173	-0.0767	0.0874	0.9097	1.2030	7.0697	9.5416	18.0400 
719.188	-0.0859	0.0640	0.9785	1.0657	6.9269	9.4647	18.0300 
719.269	-0.0806	0.1099	1.0059	0.9613	6.8390	9.2505	18.0300 
719.269	-0.1035	0.1772	1.0103	0.9229	6.7841	8.9868	18.0300 
719.283	-0.1133	0.1592	1.0347	0.8844	6.7236	8.8330	18.0400 
719.283	-0.0972	0.1138	1.0005	0.8185	6.5973	8.7781	18.0400 
719.283	-0.1069	0.0850	1.0547	0.7581	6.4929	8.6902	18.0400 
719.302	-0.1035	0.1113	1.0972	0.7526	6.3501	8.4485	18.0300 
719.318	-0.1128	0.1455	1.1289	0.8075	6.2018	8.1464	18.0200 
719.336	-0.1416	0.1411	1.1138	0.9174	6.0315	7.9047	18.0300 
719.353	-0.1318	0.1357	1.1240	1.0217	5.8667	7.7563	18.0400 
719.374	-0.0718	0.0947	1.3022	1.1041	5.7239	7.7289	18.0400 
719.471	0.0190	0.0889	1.2896	1.2305	5.4327	7.7948	18.0400 
719.482	0.0527	0.0522	1.2017	1.4502	5.1031	7.8882	18.0300 
719.483	0.0645	0.0034	1.2021	1.6479	4.9109	8.0145	18.0400 
719.483	0.1245	0.0107	1.0322	1.7853	4.7241	8.1628	18.0400 
719.483	0.1553	-0.0200	0.9849	1.8073	4.6417	8.3331	18.0400 
719.500	0.1548	-0.1592	0.9702	1.6754	4.6362	8.4485	18.0400 
719.515	0.0469	-0.2578	1.1118	1.4777	4.8669	8.3002	18.0400 
719.532	-0.1021	-0.1597	1.2393	1.3293	5.3009	7.5201	18.0200 
719.553	-0.1333	-0.0010	1.2124	1.3074	5.6909	6.4600	18.0200 
719.572	-0.0698	0.0991	1.0234	1.3458	5.8997	5.7733	18.0400 
719.675	-0.0166	0.0161	0.8755	1.3623	5.9436	5.6140	18.0300 
719.682	0.0483	-0.0366	0.7734	1.3074	6.0040	5.6305	18.0400 
719.682	0.0537	0.0288	0.7949	1.2579	6.2183	5.4053	18.0300 
719.685	-0.0107	0.0181	0.8462	1.2415	6.4819	5.0043	18.0200 
719.685	-0.0415	-0.0166	0.8369	1.1755	6.7456	4.5648	18.0300 
719.708	-0.0532	-0.0044	0.9048	1.0437	7.0148	4.0704	18.0300 
719.731	-0.0435	0.0186	0.9482	0.8569	7.2565	3.6420	18.0300 
719.751	-0.0146	0.0000	1.0273	0.6152	7.3993	3.4662	18.0300 
719.773	0.0068	-0.0073	0.9985	0.3845	7.4487	3.4332	18.0400 
719.774	0.0210	0.0723	1.0283	0.2417	7.4927	3.3783	18.0300 
719.891	0.0273	0.1245	1.0088	0.1923	7.5311	3.3234	18.0400 
719.903	0.0117	0.0830	1.0146	0.1868	7.5256	3.4827	18.0400 
719.903	-0.0161	0.0244	1.0171	0.1373	7.5366	3.7958	18.0300 
719.903	-0.0659	-0.0063	1.0869	0.0934	7.6630	4.1583	18.0300 
719.903	-0.0146	0.0718	1.0864	0.0989	7.7509	4.4604	18.0300 
719.903	0.1108	0.2222	1.0845	0.2032	7.8058	4.6747	18.0300 
719.920	0.1616	0.1289	1.0664	0.3680	7.7783	5.1141	18.0400 
719.936	0.0352	-0.0640	0.9863	0.5164	7.8223	5.5646	18.0400 
719.971	-0.2031	-0.0752	1.1821	0.7251	8.3002	5.3613	18.0300 
719.985	-0.3188	0.0137	1.4243	1.0986	8.9264	4.9878	18.0300 
720.000	-0.1616	0.2959	1.2349	1.5985	9.1406	4.9713	18.0300 
720.016	-0.1816	0.1221	1.2944	2.1588	9.2010	5.8502	18.0200 
720.137	-0.1616	-0.0488	0.8394	2.3895	9.1022	6.4709	18.0200 
720.168	-0.2456	-0.0093	0.9043	2.4500	9.4702	6.4490	18.0200 
720.168	-0.3867	-0.0986	1.0205	2.4280	9.9207	6.5588	18.0300 
720.168	-0.4678	-0.3057	1.2656	2.2137	10.2997	6.8719	18.0200 
720.168	-0.1924	0.0493	1.1426	1.9171	10.2008	6.7786	18.0200 
720.168	-0.1543	0.1880	1.2031	1.9226	9.9646	6.9324	18.0100 
720.169	-0.0840	0.0464	0.9263	2.0270	9.3658	7.7893	18.0200 
720.188	-0.0811	-0.1001	0.8770	1.9061	8.8715	8.6407	18.0100 
720.287	-0.0942	0.0176	0.8213	1.6809	8.6078	8.7781	18.0100 
720.300	-0.1313	0.1226	0.8320	1.5710	8.4705	8.6243	18.0100 
720.300	-0.1162	0.1582	0.7964	1.5326	8.2397	8.7122	17.9900 
720.300	-0.1064	0.1001	0.7949	1.4063	7.9706	9.0308	18.0000 
720.300	-0.0928	0.0293	0.8057	1.1865	7.6740	9.3329	18.0000 
720.300	-0.1021	0.0366	0.8833	0.9448	7.4652	9.4537	17.9900 
720.325	-0.0791	0.1177	0.9224	0.7306	7.2729	9.4647	17.9800 
720.351	-0.0728	0.1328	0.9170	0.5658	7.0587	9.5087	18.0000 
720.351	-0.0586	0.1392	0.9229	0.4010	6.8665	9.5856	17.9800 
720.368	-0.0801	0.1240	0.9893	0.2142	6.7511	9.6570	17.9700 
720.386	-0.1167	0.1250	1.0239	0.0659	6.6138	9.6844	17.9800 
720.408	-0.1289	0.1294	1.1084	-0.0385	6.4545	9.6844	17.9700 
720.517	-0.0742	0.1758	1.1240	-0.1428	6.1798	9.6790	17.9700 
720.526	-0.0298	0.1782	1.1611	-0.2582	5.8228	9.7504	17.9900 
720.526	-0.0293	0.1079	1.1172	-0.3625	5.4163	9.8822	17.9800 
720.526	-0.0669	0.0439	1.1191	-0.4504	5.1031	9.9152	17.9700 
720.526	-0.0430	0.1035	1.2896	-0.5164	4.9658	9.6790	17.9700 
720.526	0.0166	0.1460	1.3574	-0.5109	4.7955	9.4427	17.9600 
720.547	0.0864	0.0190	1.2578	-0.4230	4.3616	9.5581	17.9500 
720.566	0.0854	-0.1167	1.3208	-0.4175	4.0320	9.8932	17.9500 
720.587	0.1743	-0.0947	0.9878	-0.4834	3.6639	10.1129	17.9700 
720.609	0.0977	-0.1826	1.0186	-0.5713	3.5596	10.2063	17.9600 
720.745	0.0806	-0.2432	0.9653	-0.8020	3.6859	10.0415	17.9500 
720.764	-0.0439	-0.3384	1.1465	-1.0437	4.0759	9.6075	17.9500 
720.764	-0.1338	-0.2114	1.1758	-1.1426	4.5813	8.6243	17.9400 
720.765	-0.1787	-0.1069	1.2124	-1.1096	5.0537	7.5861	17.9400 
720.765	-0.1152	0.0122	1.0654	-1.0162	5.2844	6.8555	17.9500 
720.765	-0.0181	-0.0532	0.9487	-0.9229	5.3833	6.7181	17.9300 
720.765	0.0815	-0.0688	0.7949	-0.8624	5.3174	6.8115	17.9400 
720.765	0.0752	-0.0767	0.8271	-0.7635	5.4547	6.6577	17.9400 
720.788	0.0562	-0.0200	0.8140	-0.5878	5.7019	6.0809	17.9300 
720.904	-0.0049	0.0479	0.8564	-0.3735	6.0645	5.3009	17.9400 
720.916	-0.0376	0.0459	0.8408	-0.2087	6.3611	4.6692	17.9400 
720.917	-0.0645	-0.0093	0.9395	-0.1758	6.6302	4.3231	17.9400 
720.917	-0.0488	-0.0474	0.9531	-0.2527	6.7786	4.2242	17.9300 
720.917	-0.0098	-0.0420	0.9888	-0.3571	6.9049	4.2023	17.9400 
720.917	0.0322	0.0342	0.9756	-0.4010	7.0148	4.1089	17.9300 
720.945	0.0508	0.1274	1.0288	-0.3571	7.1576	4.0210	17.9400 
720.970	0.0591	0.1509	1.0063	-0.2692	7.2455	4.0814	17.9400 
720.970	0.0112	0.0332	0.9956	-0.1868	7.3334	4.3231	17.9400 
720.984	-0.0234	0.0332	1.0151	-0.1208	7.4817	4.4275	17.9300 
721.004	-0.0381	0.1538	1.0762	0.0000	7.6849	4.3781	17.9200 
721.024	-0.0073	0.1978	1.0693	0.1593	7.8058	4.4550	17.9200 
721.079	0.1152	0.2617	1.0122	0.3131	7.8278	4.6692	17.9400 
721.100	0.1147	0.1504	0.9824	0.4449	7.8223	5.0427	17.9300 
721.100	-0.0679	-0.1069	0.9971	0.5054	7.9926	5.3009	17.9300 
721.121	-0.2202	-0.1323	1.1978	0.6317	8.4485	5.1251	17.9500 
721.143	-0.2939	0.0063	1.4404	0.9064	8.9154	4.8230	17.9400 
721.166	-0.1855	0.1777	1.2710	1.2689	9.0363	4.7791	17.9100 
721.166	-0.2329	0.0044	1.0723	1.5875	9.0967	5.2570	17.9300 
721.186	-0.2241	-0.1064	0.8882	1.6425	9.1846	5.6140	17.9400 
721.203	-0.3345	-0.2046	1.0684	1.5326	9.5801	5.6525	17.9300 
721.224	-0.4165	-0.2861	1.2495	1.3239	9.9921	5.6305	17.9100 
721.240	-0.2773	-0.0327	1.2358	1.0547	10.1184	5.4492	17.9200 
721.260	-0.1958	0.1382	1.2305	0.9888	9.9756	5.4767	17.9200 
721.369	-0.1294	0.0044	0.9834	1.0327	9.5361	6.0864	17.9200 
721.400	-0.1035	-0.1206	0.9858	0.9119	9.1406	6.7896	17.9100 
721.400	-0.0454	-0.0151	0.8193	0.7196	8.8165	6.9653	17.9100 
721.400	-0.0928	0.0703	0.8525	0.6702	8.6353	6.7236	17.9000 
721.400	-0.1216	0.1060	0.7734	0.6757	8.4595	6.4984	17.9200 
721.400	-0.1675	0.0181	0.8608	0.6317	8.3002	6.4655	17.9200 
721.400	-0.1221	0.0127	0.8384	0.4889	8.0914	6.4325	17.9000 
721.421	-0.1265	0.0068	0.8940	0.3571	7.8882	6.3995	17.9000 
721.523	-0.0830	0.0347	0.8662	0.2472	7.6245	6.3446	17.9000 
721.533	-0.0806	0.0444	0.9028	0.1428	7.4158	6.2677	17.9000 
721.533	-0.1055	0.0732	0.9292	0.0549	7.3004	6.1139	17.8800 
721.533	-0.1172	0.0957	0.9194	0.0000	7.2235	5.9216	17.8900 
721.533	-0.1265	0.1235	0.9438	-0.0110	7.1301	5.7349	17.9100 
721.554	-0.1245	0.1255	0.9502	-0.0055	6.9598	5.6140	17.8900 
721.578	-0.0977	0.1284	0.9639	-0.0275	6.7072	5.5646	17.8900 
721.599	-0.0898	0.1230	0.9688	-0.0330	6.3776	5.5920	17.8900 
721.600	-0.1069	0.0884	1.0088	-0.0494	5.9930	5.6799	17.8900 
721.622	-0.0776	0.0952	0.9946	-0.0989	5.5701	5.6360	17.8800 
721.732	-0.0942	0.0991	1.0264	-0.1593	5.2570	5.4657	17.8900 
721.750	-0.0527	0.1558	1.0195	-0.1923	4.9768	5.2844	17.8900 
721.750	-0.0269	0.1040	1.1240	-0.2362	4.7021	5.3009	17.8900 
721.750	0.0527	-0.0137	1.3042	-0.2637	4.3231	5.3888	17.8900 
721.751	0.0859	-0.0181	1.3740	-0.2582	3.8782	5.3778	17.8800 
721.751	0.0693	-0.0962	1.7456	-0.3351	3.5760	5.6964	17.8900 
721.769	0.1631	-0.1924	1.3867	-0.5109	2.8455	6.6412	17.8900 
721.784	0.1299	-0.2896	0.9272	-0.7471	2.2961	7.6794	17.8700 
721.800	0.0059	-0.2920	1.0527	-1.1426	2.5323	7.9156	17.8800 
721.822	-0.0850	-0.2905	1.1797	-1.6754	2.8839	7.7728	17.8800 
721.836	-0.1147	-0.3184	1.2959	-2.0819	3.2355	7.4487	17.8800 
721.856	-0.0298	-0.0601	1.0127	-2.1368	3.2904	6.8500	17.8700 
721.946	-0.0088	0.0381	0.9268	-2.0160	3.3673	6.3556	17.8800 
721.975	0.0195	-0.1309	0.7954	-1.9940	3.2904	6.4490	17.8700 
721.976	-0.0127	-0.2813	0.7974	-2.2028	3.2410	6.8005	17.8600 
721.976	-0.0527	-0.2979	0.9106	-2.4500	3.3948	6.6687	17.8800 
721.976	-0.0088	-0.1519	0.9634	-2.5433	3.5760	6.3062	17.8700 
721.991	0.1143	-0.0176	0.9731	-2.4829	3.5980	6.2622	17.8600 
722.014	0.1313	-0.0757	0.9668	-2.4500	3.4662	6.6577	17.8700 
722.029	0.1055	-0.1680	0.9678	-2.5488	3.3179	7.1246	17.8600 
722.049	0.0498	-0.1602	0.9937	-2.6862	3.2904	7.3169	17.8600 
722.166	0.0522	-0.0786	1.0146	-2.7740	3.3289	7.3444	17.8600 
722.175	0.0659	-0.0830	1.0562	-2.8070	3.3673	7.5861	17.8400 
722.175	0.1040	-0.0688	1.0176	-2.8070	3.3673	8.0365	17.8500 
722.175	0.1113	-0.0571	1.0566	-2.7740	3.4113	8.5638	17.8400 
722.175	0.1099	-0.0786	0.9941	-2.7356	3.4277	9.0912	17.8400 
722.175	0.0820	-0.1074	0.9849	-2.6752	3.4772	9.5142	17.8400 
722.176	0.0791	0.0029	0.9790	-2.5598	3.5980	9.6515	17.8400 
722.195	0.0601	0.0107	1.0127	-2.3730	3.7079	9.8053	17.8300 
722.215	0.0361	-0.0518	1.0093	-2.1918	3.8068	10.1624	17.8300 
722.323	0.0405	-0.0518	1.0068	-2.0380	3.9001	10.5743	17.8300 
722.333	0.0537	0.0234	1.0190	-1.8677	4.0320	10.9534	17.8200 
722.333	0.0869	-0.0117	0.9824	-1.6919	4.0759	11.4423	17.8200 
722.333	0.0503	-0.0249	0.9478	-1.5216	4.1364	11.8762	17.8200 
722.334	0.0132	0.0020	1.0571	-1.2744	4.3286	12.1564	17.8200 
722.354	-0.0796	-0.1646	1.1631	-0.9833	4.4934	12.6398	17.8400 
722.374	-0.1074	-0.1650	1.3198	-0.7306	4.7131	13.0243	17.8100 
722.394	-0.1011	0.0664	1.5166	-0.4175	4.9548	13.0463	17.8300 
722.414	-0.0742	0.0786	1.3950	-0.0714	4.9823	13.1396	17.8200 
722.415	0.1021	0.3057	0.7563	0.3241	4.7681	12.9254	17.8200 
722.435	-0.0142	0.2373	0.8027	0.7141	5.0098	12.8156	17.8300 
722.539	-0.1787	-0.1357	0.7046	0.8185	5.3448	13.2660	17.8200 
722.548	-0.3394	-0.2910	1.0054	0.6976	6.0095	13.3868	17.8100 
722.548	-0.2480	-0.0400	1.0034	0.5109	6.4380	13.0133	17.8100 
722.548	-0.1963	0.1372	1.1836	0.4724	6.6687	13.0243	17.8300 
722.548	-0.1182	0.0693	1.0762	0.4230	6.4709	13.5626	17.8200 
722.572	-0.0645	-0.0400	1.1865	0.1593	6.3171	14.1559	17.8100 
722.592	-0.0293	-0.0449	1.0132	-0.1483	6.0645	14.4470	17.8300 
722.612	-0.0459	0.0708	0.9639	-0.3790	6.1029	14.3042	17.8200 
722.633	-0.0830	0.0845	0.9331	-0.5219	6.2073	14.0625	17.8100 
722.634	-0.1099	-0.0205	0.9048	-0.6921	6.2732	13.8867	17.8200 
722.656	-0.1348	-0.0664	0.9331	-0.9558	6.4050	13.5077	17.8000 
722.749	-0.1895	-0.0415	1.0112	-1.1920	6.6028	12.9034	17.8100 
722.766	-0.2056	-0.0415	0.9854	-1.3733	6.7676	12.2882	17.8100 
722.767	-0.1934	-0.0913	0.9839	-1.5656	6.8939	11.7059	17.8200 
722.767	-0.1748	-0.0854	0.9810	-1.7194	6.9818	11.0577	17.8200 
722.767	-0.1436	-0.0396	0.9683	-1.7743	7.0203	10.2777	17.8100 
722.794	-0.1655	-0.0659	1.0293	-1.7468	7.0697	9.5142	17.8300 
722.818	-0.2095	-0.1431	1.2256	-1.6864	7.1576	8.8495	17.8100 
722.818	-0.1812	-0.0820	1.2617	-1.6370	7.1741	8.2178	17.8100 
722.831	-0.0718	0.0742	1.0679	-1.5381	6.9708	7.7673	17.8100 
722.857	-0.0239	0.0239	0.9663	-1.4392	6.6467	7.7069	17.8200 
722.979	-0.0195	-0.1338	0.9175	-1.4832	6.3611	7.8607	17.8300 
723.009	-0.0317	-0.1035	0.9380	-1.5216	6.1798	7.7399	17.8200 
723.009	-0.0400	0.0840	0.9785	-1.4063	6.1084	7.3444	17.8100 
723.009	-0.0444	0.0146	1.0073	-1.2524	5.9766	7.2125	17.8100 
723.009	-0.0327	-0.0767	1.0459	-1.2140	5.8282	7.1960	17.8100 
723.009	-0.0151	-0.0161	1.0928	-1.2415	5.7733	6.9873	17.8100 
723.009	-0.0024	0.0264	1.1094	-1.2689	5.7513	6.7621	17.8100 
723.031	0.0068	-0.0068	1.0361	-1.2909	5.6689	6.6852	17.8100 
723.031	0.0215	-0.0244	0.9761	-1.3513	5.6195	6.6248	17.8100 
723.053	0.0010	-0.0098	1.0103	-1.4337	5.6635	6.5149	17.8200 
723.073	-0.0215	-0.0337	1.0361	-1.5546	5.7184	6.4929	17.8100 
723.089	-0.0220	-0.0737	1.0093	-1.7249	5.7019	6.5973	17.8000 
723.181	-0.0137	-0.0527	1.0435	-1.9061	5.6964	6.6632	17.8100 
723.201	0.0005	-0.0327	1.0239	-2.0490	5.6470	6.6907	17.8100 
723.201	0.0010	-0.0376	1.0386	-2.1533	5.6140	6.7511	17.8100 
723.201	0.0044	-0.0259	1.0332	-2.2247	5.5975	6.8225	17.8000 
723.201	-0.0015	-0.0112	1.0405	-2.2577	5.6085	6.8719	17.8200 
723.217	-0.0059	-0.0190	1.0508	-2.2852	5.6250	6.9379	17.8300 
723.233	-0.0269	-0.0537	1.0513	-2.3236	5.6470	7.0477	17.8200 
723.251	-0.0269	-0.0322	1.0522	-2.3730	5.6854	7.1191	17.8200 
723.273	0.0049	0.0171	1.0356	-2.4060	5.6964	7.1960	17.8100 
723.289	0.0146	-0.0146	1.0073	-2.4225	5.6525	7.3938	17.8200 
723.396	-0.0146	-0.0786	1.0210	-2.4719	5.6305	7.6080	17.8300 
723.417	-0.0103	-0.0142	1.0234	-2.5269	5.6415	7.5970	17.8200 
723.418	-0.0122	0.0249	1.0581	-2.5104	5.6525	7.5421	17.8200 
723.418	-0.0122	-0.0332	1.0215	-2.4994	5.5920	7.6520	17.8200 
723.418	-0.0278	-0.0654	1.0415	-2.5159	5.5811	7.7289	17.8200 
723.418	-0.0322	0.0117	1.0615	-2.4939	5.5865	7.6740	17.8300 
723.434	-0.0293	0.0210	1.0625	-2.4335	5.5536	7.7179	17.8200 
723.449	0.0083	0.0000	1.0195	-2.3950	5.4437	7.8992	17.8100 
723.548	0.0127	-0.0044	1.0195	-2.3785	5.3503	8.0475	17.8400 
723.565	0.0000	0.0054	1.0366	-2.3566	5.2844	8.1189	17.8200 
723.566	-0.0176	-0.0073	1.0313	-2.3346	5.2405	8.1683	17.8300 
723.566	-0.0283	-0.0010	1.0537	-2.3181	5.2130	8.1848	17.8300 
723.566	-0.0220	0.0107	1.0366	-2.3181	5.1581	8.2068	17.8300 
723.582	-0.0127	-0.0073	1.0391	-2.3346	5.1031	8.2837	17.8300 
723.600	-0.0059	-0.0063	1.0229	-2.3730	5.0482	8.3551	17.8400 
723.615	-0.0098	0.0122	1.0239	-2.4005	5.0153	8.3716	17.8400 
723.633	-0.0137	0.0190	1.0210	-2.4170	4.9878	8.3881	17.8200 
723.647	-0.0205	-0.0093	1.0415	-2.4335	4.9658	8.4595	17.8400 
723.746	-0.0220	-0.0137	1.0356	-2.4609	4.9329	8.5254	17.8400 
723.766	-0.0254	0.0044	1.0547	-2.4664	4.9164	8.5583	17.8400 
723.766	-0.0186	0.0063	1.0391	-2.4609	4.8779	8.6078	17.8500 
723.766	-0.0156	0.0049	1.0347	-2.4500	4.8450	8.6847	17.8500 
723.766	-0.0088	0.0112	1.0269	-2.4335	4.8175	8.7451	17.8500 
723.766	-0.0146	0.0068	1.0288	-2.4225	4.8010	8.8165	17.8400 
723.786	-0.0210	-0.0005	1.0415	-2.4060	4.7955	8.8989	17.8500 
723.805	-0.0122	-0.0029	1.0347	-2.3895	4.7736	8.9868	17.8400 
723.827	-0.0122	-0.0103	1.0474	-2.3676	4.7626	9.0802	17.8500 
723.846	-0.0181	0.0103	1.0366	-2.3346	4.7626	9.1296	17.8600 
723.865	-0.0239	0.0142	1.0513	-2.2797	4.7736	9.1791	17.8300 
723.888	-0.0181	-0.0039	1.0288	-2.2302	4.7516	9.2780	17.8400 
723.904	-0.0190	-0.0020	1.0259	-2.1808	4.7461	9.3658	17.8500 
724.000	-0.0146	0.0181	1.0430	-2.1204	4.7571	9.4318	17.8400 
724.015	-0.0151	0.0122	1.0400	-2.0599	4.7516	9.5142	17.8400 
724.015	-0.0122	0.0088	1.0386	-2.0105	4.7461	9.5966	17.8600 
724.015	-0.0093	0.0181	1.0366	-1.9611	4.7461	9.6515	17.8500 
724.017	-0.0171	0.0127	1.0308	-1.9006	4.7516	9.7064	17.8400 
724.031	-0.0166	0.0181	1.0283	-1.8512	4.7516	9.7559	17.8500 
724.051	-0.0190	0.0195	1.0410	-1.8073	4.7516	9.8218	17.8500 
724.066	-0.0107	0.0200	1.0322	-1.7633	4.7351	9.8987	17.8500 
724.083	-0.0103	0.0029	1.0283	-1.7303	4.7076	10.0140	17.8400 
724.103	-0.0103	0.0049	1.0269	-1.6919	4.6857	10.1019	17.8400 
724.122	-0.0088	0.0396	1.0449	-1.6534	4.6857	10.1239	17.8600 
724.232	-0.0068	0.0298	1.0356	-1.6150	4.6747	10.1788	17.8700 
724.263	-0.0127	-0.0063	1.0322	-1.5930	4.6582	10.2777	17.8600 
724.263	-0.0151	0.0151	1.0322	-1.5820	4.6692	10.3052	17.8400 
724.264	-0.0151	0.0273	1.0439	-1.5546	4.6692	10.3326	17.8400 
724.264	-0.0024	0.0186	1.0215	-1.5326	4.6362	10.4150	17.8500 
724.264	0.0039	0.0142	1.0327	-1.5216	4.6033	10.4974	17.8500 
724.264	0.0029	0.0308	1.0352	-1.4996	4.5813	10.5249	17.8600 
724.283	-0.0054	0.0239	1.0508	-1.4832	4.5758	10.5688	17.8700 
724.382	-0.0146	0.0020	1.0332	-1.4722	4.5593	10.6293	17.8700 
724.392	-0.0151	0.0132	1.0366	-1.4612	4.5593	10.6512	17.8900 
724.392	-0.0063	0.0132	1.0454	-1.4447	4.5483	10.6897	17.8700 
724.392	0.0049	0.0054	1.0239	-1.4227	4.5099	10.7666	17.8600 
724.392	-0.0015	0.0142	1.0386	-1.4008	4.5154	10.7886	17.8600 
724.409	0.0000	0.0322	1.0322	-1.3568	4.5099	10.7941	17.8700 
724.424	-0.0137	0.0098	1.0342	-1.3184	4.5099	10.8380	17.8600 
724.443	-0.0088	0.0151	1.0332	-1.2854	4.5099	10.8820	17.8700 
724.460	-0.0078	0.0269	1.0259	-1.2579	4.4989	10.9314	17.8600 
724.483	-0.0005	0.0200	1.0273	-1.2250	4.4824	11.0028	17.8800 
724.591	-0.0044	0.0103	1.0264	-1.2085	4.4714	11.0632	17.8700 
724.618	-0.0112	0.0146	1.0356	-1.1920	4.4769	11.0687	17.8800 
724.618	-0.0112	0.0293	1.0386	-1.1700	4.4824	11.0577	17.8700 
724.618	-0.0093	0.0249	1.0317	-1.1481	4.4769	11.0852	17.8800 
724.618	-0.0146	0.0000	1.0449	-1.1481	4.4714	11.1292	17.8800 
724.618	-0.0151	0.0029	1.0352	-1.1426	4.4604	11.1511	17.8800 
724.639	-0.0117	0.0303	1.0283	-1.1206	4.4550	11.1401	17.8900 
724.660	-0.0088	0.0244	1.0269	-1.0876	4.4220	11.1841	17.8800 
724.680	-0.0078	0.0039	1.0288	-1.0712	4.3781	11.2500	17.8900 
724.696	-0.0112	0.0220	1.0410	-1.0492	4.3506	11.2665	17.8800 
724.808	-0.0083	0.0313	1.0342	-1.0107	4.3011	11.3049	17.8800 
724.808	0.0020	0.0171	1.0293	-0.9833	4.2462	11.3818	17.9000 
724.827	-0.0024	0.0176	1.0332	-0.9723	4.2188	11.4368	17.8800 
724.828	0.0010	0.0278	1.0420	-0.9558	4.2133	11.4532	17.8700 
724.828	0.0000	0.0171	1.0190	-0.9448	4.1913	11.4917	17.8800 
724.828	-0.0029	0.0103	1.0234	-0.9448	4.1803	11.5082	17.8700 
724.828	-0.0034	0.0200	1.0337	-0.9393	4.1748	11.5027	17.8900 
724.847	-0.0029	0.0088	1.0376	-0.9393	4.1638	11.5247	17.8900 
724.861	0.0015	0.0181	1.0366	-0.9338	4.1473	11.5302	17.8900 
724.882	-0.0015	0.0288	1.0449	-0.9229	4.1418	11.5247	17.8900 
724.899	-0.0015	0.0132	1.0381	-0.9064	4.1254	11.5576	17.8900 
725.010	-0.0010	0.0122	1.0313	-0.9009	4.1199	11.5851	17.8900 
725.036	-0.0020	0.0239	1.0356	-0.8899	4.1199	11.5741	17.8800 
725.036	-0.0024	0.0220	1.0225	-0.8734	4.1144	11.5741	17.8900 
725.036	-0.0063	0.0142	1.0313	-0.8624	4.1199	11.5796	17.8900 
725.036	-0.0088	0.0176	1.0337	-0.8624	4.1309	11.5796	17.8900 
725.036	-0.0059	0.0244	1.0405	-0.8569	4.1473	11.5851	17.9000 
725.059	-0.0054	0.0215	1.0396	-0.8569	4.1473	11.6125	17.8900 
725.060	-0.0024	0.0200	1.0205	-0.8679	4.1418	11.6510	17.8900 
725.079	-0.0059	0.0176	1.0303	-0.8844	4.1528	11.6730	17.9000 
725.101	-0.0098	0.0142	1.0342	-0.9009	4.1583	11.7004	17.8800 
725.121	-0.0117	0.0068	1.0366	-0.9174	4.1638	11.7279	17.9000 
725.232	-0.0063	0.0225	1.0361	-0.9229	4.1638	11.7334	17.8900 
725.249	-0.0063	0.0229	1.0366	-0.9338	4.1748	11.7444	17.8900 
725.249	-0.0054	0.0146	1.0386	-0.9448	4.1748	11.7664	17.9100 
725.249	-0.0039	0.0142	1.0298	-0.9668	4.1748	11.7828	17.8800 
725.249	-0.0088	0.0117	1.0356	-0.9888	4.1748	11.7828	17.8900 
725.249	-0.0068	0.0132	1.0361	-1.0052	4.1748	11.7883	17.9000 
725.265	-0.0073	0.0166	1.0356	-1.0217	4.1748	11.7938	17.9100 
725.284	-0.0098	0.0098	1.0449	-1.0327	4.1693	11.8158	17.9100 
725.298	-0.0083	0.0093	1.0244	-1.0492	4.1638	11.8323	17.9200 
725.315	-0.0093	0.0234	1.0439	-1.0602	4.1748	11.8323	17.9100 
725.336	-0.0093	0.0112	1.0332	-1.0822	4.1638	11.8542	17.9200 
725.451	-0.0088	-0.0044	1.0405	-1.1096	4.1693	11.8817	17.9100 
725.465	-0.0112	0.0098	1.0352	-1.1206	4.1748	11.8762	17.8900 
725.465	-0.0068	0.0210	1.0288	-1.1206	4.1693	11.8762	17.9100 
725.465	-0.0044	0.0054	1.0249	-1.1316	4.1473	11.9147	17.9200 
725.465	-0.0029	0.0059	1.0322	-1.1426	4.1364	11.9366	17.9100 
725.465	-0.0054	0.0127	1.0371	-1.1481	4.1254	11.9476	17.9000 
725.484	-0.0161	-0.0039	1.0391	-1.1481	4.1144	11.9751	17.9100 
725.515	-0.0083	0.0005	1.0361	-1.1536	4.0979	11.9861	17.9000 
725.530	-0.0068	0.0151	1.0386	-1.1481	4.0869	11.9861	17.9100 
725.548	-0.0010	0.0098	1.0391	-1.1316	4.0649	12.0190	17.9200 
725.567	-0.0010	0.0093	1.0264	-1.1261	4.0540	12.0465	17.9200 
725.671	-0.0068	0.0181	1.0469	-1.1206	4.0649	12.0520	17.8900 
725.682	-0.0020	0.0088	1.0303	-1.1261	4.0485	12.0905	17.9100 
725.683	-0.0054	-0.0078	1.0303	-1.1426	4.0375	12.1344	17.9200 
725.683	-0.0078	0.0117	1.0435	-1.1481	4.0430	12.1234	17.9100 
725.683	-0.0049	0.0200	1.0361	-1.1426	4.0375	12.1179	17.9300 
725.683	-0.0054	0.0034	1.0391	-1.1426	4.0265	12.1454	17.9200 
725.699	-0.0024	0.0117	1.0308	-1.1536	4.0265	12.1619	17.9200 
725.716	-0.0068	0.0156	1.0371	-1.1591	4.0375	12.1783	17.9200 
725.827	-0.0044	0.0107	1.0313	-1.1591	4.0375	12.2168	17.9000 
725.840	-0.0059	0.0010	1.0317	-1.1646	4.0430	12.2607	17.9100 
725.840	-0.0103	0.0034	1.0347	-1.1646	4.0485	12.2772	17.9200 
725.840	-0.0049	0.0210	1.0293	-1.1591	4.0540	12.2772	17.9100 
725.840	-0.0078	0.0137	1.0454	-1.1536	4.0540	12.3102	17.9000 
725.840	0.0039	0.0151	1.0298	-1.1536	4.0375	12.3651	17.9100 
725.873	0.0010	0.0166	1.0444	-1.1536	4.0320	12.4091	17.9100 
725.893	-0.0073	0.0039	1.0371	-1.1481	4.0265	12.4530	17.9100 
725.915	-0.0103	0.0024	1.0381	-1.1481	4.0320	12.4805	17.9000 
725.915	-0.0083	0.0225	1.0381	-1.1426	4.0375	12.4915	17.9200 
725.932	-0.0015	0.0200	1.0273	-1.1426	4.0375	12.5189	17.9200 
725.951	-0.0039	0.0005	1.0391	-1.1591	4.0375	12.5793	17.9100 
726.047	-0.0005	0.0156	1.0313	-1.1810	4.0430	12.6013	17.9200 
726.065	-0.0068	0.0093	1.0396	-1.1920	4.0485	12.6288	17.9200 
726.065	-0.0068	-0.0034	1.0283	-1.2085	4.0375	12.6782	17.9200 
726.065	-0.0020	0.0073	1.0371	-1.2305	4.0430	12.7057	17.9200 
726.065	-0.0010	0.0249	1.0342	-1.2305	4.0430	12.7057	17.9200 
726.082	-0.0010	0.0088	1.0352	-1.2360	4.0430	12.7441	17.9200 
726.100	-0.0024	-0.0010	1.0366	-1.2524	4.0430	12.7881	17.9200 
726.132	-0.0063	0.0054	1.0356	-1.2744	4.0594	12.7936	17.9300 
726.146	-0.0054	0.0107	1.0361	-1.2909	4.0759	12.7991	17.9300 
726.256	-0.0049	-0.0005	1.0244	-1.3129	4.0759	12.8210	17.9400 
726.264	-0.0107	-0.0010	1.0430	-1.3348	4.0924	12.8265	17.9200 
726.264	-0.0034	0.0200	1.0317	-1.3513	4.0979	12.8101	17.9300 
726.264	-0.0020	0.0049	1.0361	-1.3678	4.0979	12.8430	17.9400 
726.264	-0.0039	-0.0024	1.0298	-1.3898	4.0924	12.8760	17.9400 
726.265	-0.0103	0.0103	1.0347	-1.4063	4.1089	12.8650	17.9400 
726.289	-0.0146	0.0029	1.0410	-1.4227	4.1199	12.8870	17.9200 
726.309	-0.0034	-0.0015	1.0288	-1.4502	4.1144	12.9254	17.9300 
726.329	-0.0034	0.0024	1.0371	-1.4722	4.1199	12.9364	17.9500 
726.344	-0.0039	0.0078	1.0356	-1.4886	4.1254	12.9419	17.9500 
726.480	-0.0049	0.0010	1.0332	-1.5051	4.1199	12.9584	17.9600