StartTime: 2018-11-18 09:26:32.427
Time(s)	ax(g)	ay(g)	az(g)	AngleX(deg)	AngleY(deg)	AngleZ(deg)	T(Â°) 
769.620	0.0396	0.0156	1.0381	-0.5383	1.3348	0.9448	17.3900 
769.638	0.0430	0.0098	1.0317	-0.5438	1.3348	0.9448	17.3900 
769.660	0.0420	0.0249	1.0376	-0.5328	1.3623	0.9009	17.3700 
769.679	0.0371	0.0254	1.0381	-0.5164	1.3788	0.8789	17.3800 
769.702	0.0361	0.0186	1.0244	-0.5109	1.3898	0.8624	17.4000 
769.799	0.0298	0.0215	1.0347	-0.5109	1.4172	0.8295	17.4000 
769.820	0.0269	0.0254	1.0405	-0.5054	1.4447	0.7910	17.4000 
769.820	0.0317	0.0239	1.0327	-0.5054	1.4557	0.7690	17.3800 
769.820	0.0322	0.0215	1.0322	-0.5054	1.4667	0.7526	17.4000 
769.820	0.0327	0.0254	1.0337	-0.5054	1.4886	0.7251	17.4100 
769.820	0.0317	0.0200	1.0352	-0.5054	1.5051	0.7086	17.4200 
769.839	0.0288	0.0171	1.0366	-0.5054	1.5216	0.6812	17.3900 
769.859	0.0332	0.0273	1.0298	-0.5054	1.5381	0.6482	17.4000 
769.880	0.0352	0.0186	1.0322	-0.5054	1.5436	0.6427	17.4100 
769.899	0.0342	0.0083	1.0347	-0.5164	1.5436	0.6537	17.4100 
770.000	0.0352	0.0215	1.0293	-0.5219	1.5436	0.6427	17.4000 
770.022	0.0298	0.0205	1.0391	-0.5164	1.5546	0.6262	17.4100 
770.022	0.0308	0.0195	1.0313	-0.5164	1.5601	0.6207	17.4200 
770.022	0.0283	0.0151	1.0400	-0.5328	1.5765	0.5988	17.4000 
770.023	0.0259	0.0137	1.0459	-0.5438	1.5820	0.5548	17.4200 
770.023	0.0205	0.0225	1.0361	-0.5493	1.6040	0.4944	17.4300 
770.038	0.0215	0.0303	1.0337	-0.5493	1.6095	0.4504	17.4200 
770.056	0.0342	0.0332	1.0137	-0.5548	1.6040	0.4340	17.4300 
770.076	0.0317	0.0210	1.0361	-0.5713	1.5985	0.4230	17.4200 
770.098	0.0327	0.0308	1.0220	-0.5878	1.5875	0.3845	17.4200 
770.230	0.0308	0.0444	1.0352	-0.5933	1.5985	0.3186	17.4400 
770.255	0.0132	0.0293	1.0488	-0.6042	1.6040	0.2582	17.4400 
770.255	0.0176	0.0298	1.0327	-0.6207	1.6040	0.1923	17.4300 
770.255	0.0229	0.0449	1.0332	-0.6372	1.5985	0.1044	17.4200 
770.255	0.0308	0.0596	1.0161	-0.6372	1.5875	0.0000	17.4300 
770.255	0.0137	0.0444	1.0137	-0.6592	1.5820	-0.1044	17.4300 
770.255	-0.0024	0.0317	1.0347	-0.6921	1.5930	-0.2472	17.4300 
770.275	-0.0088	0.0718	1.0244	-0.7141	1.5985	-0.4395	17.4500 
770.296	-0.0122	0.0811	1.0464	-0.7251	1.6095	-0.5713	17.4500 
770.316	0.0088	0.0547	1.0200	-0.7690	1.5765	-0.6042	17.4400 
770.330	0.0054	0.0259	1.0298	-0.8405	1.5601	-0.6372	17.4500 
770.459	-0.0083	0.0728	1.0229	-0.9009	1.5765	-0.7965	17.4600 
770.460	-0.0151	0.0864	1.0273	-0.9503	1.6095	-0.9283	17.4500 
770.470	0.0034	0.0527	1.0166	-1.0217	1.6095	-0.9613	17.4400 
770.470	0.0068	0.0439	1.0151	-1.1096	1.6150	-0.9943	17.4500 
770.470	0.0078	0.0825	1.0415	-1.2030	1.6479	-1.0986	17.4400 
770.470	0.0000	0.0537	1.0210	-1.3129	1.6534	-1.1481	17.4400 
770.471	-0.0044	0.0137	1.0225	-1.4557	1.6754	-1.1481	17.4600 
770.488	0.0176	0.0454	1.0273	-1.5930	1.7139	-1.1646	17.4700 
770.518	0.0498	0.0190	1.0542	-1.7303	1.6974	-1.0492	17.4600 
770.518	0.0786	0.0063	1.0420	-1.9006	1.6534	-0.8734	17.4600 
770.534	0.1011	0.0415	1.0303	-2.0709	1.6534	-0.7306	17.4700 
770.552	0.1182	0.0391	0.9990	-2.2357	1.6479	-0.5493	17.4600 
770.669	0.1250	-0.0313	0.9702	-2.4335	1.6534	-0.2966	17.4500 
770.690	0.1216	-0.0527	1.0088	-2.6587	1.7029	-0.1373	17.4500 
770.690	0.1050	-0.0186	1.0928	-2.8894	1.7798	-0.1428	17.4500 
770.690	0.1118	0.0151	1.0898	-3.0981	1.7908	-0.1483	17.4600 
770.690	0.1250	-0.0049	1.0723	-3.3069	1.7194	-0.0165	17.4800 
770.690	0.1128	-0.0273	1.0532	-3.5266	1.6315	0.1758	17.4700 
770.710	0.1133	0.0195	1.0898	-3.7354	1.5985	0.3186	17.4500 
770.814	0.1528	0.0737	1.0527	-3.8947	1.5381	0.4834	17.4600 
770.839	0.1685	0.0273	1.0073	-4.0485	1.4777	0.7800	17.4600 
770.839	0.1475	-0.0117	0.9966	-4.2297	1.4886	1.0327	17.4700 
770.839	0.1094	-0.0044	1.0005	-4.4220	1.5875	1.1316	17.4500 
770.839	0.0991	-0.0190	1.0098	-4.5923	1.6809	1.2085	17.4800 
770.839	0.1133	-0.0415	0.9839	-4.7571	1.7303	1.3129	17.4900 
770.839	0.1201	-0.0288	1.0083	-4.9109	1.7688	1.3898	17.4700 
770.855	0.1313	-0.0039	0.9893	-5.0372	1.7688	1.4667	17.4800 
770.874	0.1226	-0.0322	1.0005	-5.1526	1.7633	1.6095	17.4700 
770.892	0.0923	-0.0698	0.9956	-5.2789	1.7688	1.7633	17.4700 
770.916	0.0801	-0.0400	1.0356	-5.3778	1.8347	1.8182	17.4700 
771.014	0.0996	-0.0083	1.0547	-5.4108	1.8842	1.9336	17.4900 
771.040	0.1313	-0.0244	1.0449	-5.4327	1.8732	2.1973	17.4800 
771.040	0.1563	-0.0508	1.0229	-5.4492	1.8347	2.5323	17.4800 
771.040	0.1519	-0.0615	1.0264	-5.4437	1.8182	2.8455	17.4800 
771.040	0.1211	-0.0679	1.0439	-5.4108	1.8347	3.0927	17.4800 
771.040	0.1235	-0.0186	1.0713	-5.3503	1.8622	3.2629	17.4800 
771.069	0.1436	0.0142	1.1265	-5.2460	1.8677	3.5046	17.4800 
771.091	0.2041	0.0078	1.1074	-5.1361	1.7688	3.8727	17.4900 
771.107	0.2124	0.0005	1.1118	-5.0317	1.6754	4.2188	17.4900 
771.129	0.1699	-0.0454	1.1572	-4.9054	1.6315	4.5099	17.4900 
771.143	0.1548	-0.0513	1.1274	-4.7461	1.5985	4.7516	17.5000 
771.170	0.1689	-0.0044	1.0635	-4.5154	1.5710	4.9768	17.4900 
771.254	0.1699	-0.0215	1.0161	-4.1968	1.5436	5.3448	17.4900 
771.273	0.1045	-0.1309	1.0781	-3.8287	1.6040	5.7898	17.5000 
771.273	0.0259	-0.1431	1.1943	-3.4277	1.7908	5.9326	17.4800 
771.273	0.0444	0.0498	1.1680	-2.9828	1.9171	5.7568	17.4800 
771.273	-0.0083	0.0098	1.1665	-2.4719	2.0380	5.7074	17.4900 
771.274	-0.0146	0.0234	0.8584	-1.9775	2.0105	5.5701	17.4700 
771.288	-0.0864	-0.0020	0.8916	-1.5381	2.1808	5.2844	17.4900 
771.308	-0.1421	-0.1523	1.0454	-1.2469	2.4554	5.0372	17.5000 
771.327	-0.2803	-0.1895	1.0522	-1.0327	2.7081	4.7186	17.5000 
771.348	-0.2275	0.0225	1.2109	-0.8679	2.9663	4.3286	17.4800 
771.368	-0.1533	0.1250	1.1914	-0.6482	3.0212	4.3341	17.4800 
771.485	-0.0073	0.0083	1.0732	-0.4944	2.7686	5.0043	17.4900 
771.503	0.0708	-0.0347	1.0459	-0.4614	2.5269	5.7129	17.4900 
771.503	0.0415	-0.0015	0.9868	-0.3790	2.3676	5.9766	17.4800 
771.504	0.0322	0.1431	0.8682	-0.1703	2.3016	5.8667	17.5000 
771.504	0.0200	0.1357	0.8555	0.0714	2.2577	5.8063	17.4900 
771.504	0.0005	0.0615	0.8242	0.2307	2.1533	5.8118	17.5100 
771.530	-0.0239	0.1157	0.9409	0.3186	2.1753	5.6360	17.5100 
771.531	-0.0205	0.1377	0.9668	0.3845	2.2028	5.4602	17.4900 
771.634	-0.0405	0.0791	0.9873	0.4010	2.2028	5.4602	17.5000 
771.657	-0.0215	0.0884	0.9209	0.3461	2.1698	5.5042	17.4900 
771.657	-0.0186	0.0928	0.9478	0.2637	2.1698	5.5042	17.4900 
771.657	-0.0034	0.0625	0.9785	0.1703	2.1259	5.4712	17.4900 
771.657	0.0161	0.2041	1.0615	0.0824	2.1039	5.3339	17.4900 
771.657	0.0464	0.1865	0.9946	-0.0110	1.9775	5.4382	17.5000 
771.676	-0.0137	0.0142	0.9790	-0.1813	1.8457	5.6525	17.4800 
771.686	-0.0107	0.0947	1.0034	-0.3680	1.8842	5.4932	17.4900 
771.708	-0.0293	0.1499	1.0527	-0.4614	1.9116	5.2570	17.4900 
771.726	-0.0142	0.0732	1.0659	-0.5878	1.8457	5.2130	17.4900 
771.839	-0.0479	0.0146	1.1162	-0.7361	1.7633	5.1141	17.5200 
771.855	-0.0688	0.1235	1.1357	-0.8075	1.7413	4.7571	17.5000 
771.856	-0.1191	0.1328	1.1704	-0.8130	1.7358	4.5428	17.4900 
771.856	-0.1196	0.0166	1.1353	-0.8679	1.6315	4.6747	17.4900 
771.856	-0.0576	-0.0552	1.1572	-0.9174	1.5106	4.8779	17.5000 
771.856	0.0098	0.0386	1.2393	-0.8624	1.3678	4.9329	17.4900 
771.876	0.1279	0.0723	1.1133	-0.6592	0.9723	5.0867	17.4800 
771.889	0.1572	-0.0342	1.1416	-0.4614	0.5548	5.5042	17.4800 
771.904	0.2402	-0.1040	1.0649	-0.3406	0.1593	5.9875	17.4800 
771.928	0.2720	-0.1318	1.0024	-0.2802	-0.1813	6.3336	17.4600 
771.949	0.2373	-0.1646	1.0083	-0.2692	-0.2966	6.3776	17.4700 
772.063	0.0996	-0.2231	1.1528	-0.2966	-0.1538	6.1139	17.4800 
772.087	0.0181	-0.2466	1.1934	-0.3406	0.0769	5.5811	17.4600 
772.087	0.0015	-0.0757	1.1460	-0.3076	0.3186	4.7461	17.4700 
772.087	0.0171	0.0327	1.0830	-0.1813	0.4999	4.0100	17.4700 
772.087	0.0620	-0.0195	0.9072	-0.0769	0.5548	3.6969	17.4500 
772.087	0.0776	-0.0645	0.8496	-0.0275	0.6317	3.5156	17.4500 
772.087	0.0996	0.0059	0.8193	0.0604	0.8185	3.1146	17.4500 
772.105	0.1016	0.0454	0.8511	0.1978	1.0767	2.6202	17.4500 
772.124	0.0884	0.0186	0.8472	0.2802	1.2964	2.2247	17.4500 
772.145	0.0723	-0.0381	0.8711	0.2692	1.5161	1.8951	17.4500 
772.165	0.0830	-0.0127	0.9219	0.2197	1.7633	1.4777	17.4400 
772.276	0.0747	-0.0352	0.9609	0.1703	1.9995	1.0876	17.4300 
772.284	0.0903	-0.0527	0.9810	0.1099	2.1863	0.7251	17.4400 
772.284	0.1211	0.0103	1.0088	0.1044	2.3840	0.2692	17.4300 
772.284	0.1514	0.1143	1.0601	0.1978	2.5598	-0.1373	17.4300 
772.284	0.1387	0.0903	1.0640	0.3131	2.6367	-0.2527	17.4300 
772.284	0.1099	-0.0156	1.0352	0.4120	2.6422	-0.1208	17.4300 
772.306	0.0679	0.0000	1.0552	0.5328	2.7521	-0.1263	17.4300 
772.324	0.0752	0.1538	1.0776	0.7361	2.9553	-0.2911	17.4300 
772.343	0.1421	0.2104	1.0537	0.9833	3.0872	-0.2911	17.4300 
772.365	0.1719	0.1060	1.0435	1.1920	3.1805	0.0055	17.4100 
772.384	0.1372	0.0171	1.0127	1.3568	3.3124	0.2637	17.4200 
772.485	-0.0454	-0.0293	1.2202	1.5930	3.6914	0.2142	17.4200 
772.502	-0.1343	0.0186	1.4307	1.9226	4.2462	-0.1044	17.4200 
772.503	-0.0806	0.2300	1.2188	2.3621	4.5374	-0.4889	17.4200 
772.503	-0.0811	0.1807	1.0669	2.8015	4.6747	-0.4999	17.4000 
772.503	-0.1860	-0.1401	0.8540	2.9333	4.8505	-0.3186	17.4100 
772.503	-0.2886	-0.2500	1.0220	2.7740	5.3778	-0.5878	17.4100 
772.525	-0.3428	-0.1328	1.1992	2.5159	5.9106	-1.1646	17.4100 
772.545	-0.3037	-0.0068	1.2827	2.2906	6.1798	-1.5656	17.3900 
772.565	-0.1709	0.0498	1.1455	2.1533	6.1029	-1.4447	17.4000 
772.581	-0.1357	-0.0596	1.1064	2.0105	5.8722	-0.8679	17.4000 
772.691	-0.0449	-0.0386	0.9751	1.8127	5.5920	-0.3461	17.3900 
772.703	-0.0293	0.0146	0.9233	1.6260	5.3723	-0.0110	17.4000 
772.703	-0.0137	0.0459	0.8286	1.4832	5.1196	0.2032	17.4000 
772.703	-0.0361	0.0396	0.8086	1.3513	4.8944	0.3735	17.4000 
772.703	-0.0747	0.0464	0.7563	1.2744	4.6692	0.4340	17.3700 
772.703	-0.0630	0.1279	0.7808	1.2360	4.4824	0.4010	17.3700 
772.720	-0.0337	0.1123	0.8447	1.1755	4.2133	0.6097	17.3800 
772.740	-0.0220	0.0278	0.8276	0.9833	3.8892	0.9998	17.3800 
772.855	-0.0161	0.0630	0.8975	0.7471	3.6584	1.1865	17.3700 
772.872	-0.0239	0.1270	0.9502	0.5823	3.5046	1.1591	17.3700 
772.872	-0.0210	0.1279	0.9561	0.4724	3.2959	1.1810	17.3700 
772.872	-0.0308	0.1157	1.0039	0.3516	3.1036	1.2634	17.3700 
772.872	-0.0410	0.1099	1.0762	0.1923	2.9608	1.3129	17.3700 
772.872	-0.0757	0.0420	1.1196	0.0330	2.7905	1.4172	17.3700 
772.888	-0.0679	0.0225	1.1440	-0.0714	2.5928	1.4886	17.3500 
772.919	-0.0293	0.1079	1.1187	-0.0604	2.3676	1.3788	17.3600 
772.938	-0.0181	0.1699	1.1011	0.0824	2.1478	1.1755	17.3700 
772.960	-0.0127	0.1665	1.0942	0.2747	1.9336	1.0547	17.3600 
773.069	0.0117	0.0986	1.2378	0.4285	1.7633	1.0822	17.3500 
773.087	0.1411	-0.0078	1.3477	0.5383	1.4227	1.2415	17.3700 
773.087	0.1445	-0.0967	1.2935	0.6702	0.9723	1.4832	17.3400 
773.087	0.2007	-0.1055	1.2183	0.7635	0.6482	1.6370	17.3600 
773.087	0.2495	-0.0396	1.1006	0.8075	0.3900	1.7468	17.3500 
773.087	0.2212	-0.1748	1.0361	0.6866	0.2692	1.9061	17.3500 
773.087	0.1611	-0.2505	1.0894	0.4395	0.3680	1.8402	17.3500 
773.106	0.0000	-0.2407	1.1792	0.2307	0.6702	1.2305	17.3500 
773.122	-0.0366	-0.0977	1.1479	0.1318	0.9943	0.2692	17.3500 
773.140	0.0200	0.0947	0.9995	0.1538	1.1865	-0.5383	17.3400 
773.158	0.0371	-0.0103	0.9146	0.0989	1.2469	-0.8075	17.3500 
773.180	0.0581	-0.1807	0.7480	-0.1263	1.3074	-0.7910	17.3600 
773.274	0.0342	-0.1416	0.7930	-0.3241	1.6150	-1.1041	17.3300 
773.295	0.0396	0.0088	0.8599	-0.3790	2.0160	-1.6754	17.3300 
773.295	0.0308	-0.0352	0.8843	-0.4285	2.2852	-1.9556	17.3200 
773.295	0.0732	-0.0986	0.8516	-0.5328	2.4005	-1.9940	17.3300 
773.295	0.0630	-0.1274	0.9033	-0.6702	2.6147	-2.1698	17.3300 
773.317	0.0679	-0.0356	0.9976	-0.7581	2.8894	-2.5708	17.3000 
773.317	0.0811	0.0244	1.0142	-0.7251	3.1256	-3.0157	17.3200 
773.336	0.1353	0.1001	0.9819	-0.6207	3.2355	-3.3673	17.3400 
773.356	0.1260	0.1255	1.0269	-0.4779	3.3618	-3.4882	17.3300 
773.377	0.1011	0.0615	1.0283	-0.3241	3.4167	-3.3234	17.3200 
773.399	0.0771	0.0005	1.0527	-0.2087	3.4607	-3.0377	17.3200 
773.420	0.0400	0.0073	1.0898	-0.0934	3.5706	-2.8290	17.3200 
773.438	0.0596	0.0698	1.0889	0.1044	3.6969	-2.6807	17.3200 
773.537	0.1606	0.1899	1.0488	0.3955	3.8013	-2.4554	17.3100 
773.556	0.1992	0.1675	0.9971	0.7141	3.8727	-2.0435	17.3100 
773.556	0.0874	-0.0229	0.9668	1.0162	4.0100	-1.5326	17.3100 
773.556	-0.1216	-0.1650	1.1519	1.3184	4.4220	-1.1591	17.3300 
773.556	-0.2607	-0.0850	1.3120	1.7139	4.9878	-1.2305	17.3200 
773.576	-0.1377	0.2822	1.0874	2.2632	5.2350	-1.5930	17.3200 
773.576	-0.2158	0.0708	1.3081	2.7466	5.4767	-1.2964	17.3100 
773.596	-0.1484	-0.0654	1.0889	2.8510	5.4108	-0.9338	17.3100 
773.617	-0.2310	-0.0317	1.2344	2.7356	5.7513	-1.1206	17.3200 
773.638	-0.2656	0.0293	1.3804	2.6093	6.1249	-1.4063	17.3300 
773.654	-0.1333	0.0483	1.1299	2.5104	6.0480	-1.4117	17.3300 
773.754	-0.0703	0.0430	1.0981	2.3950	5.8337	-1.2140	17.3200 
773.771	0.0068	0.0776	0.8242	2.3071	5.4932	-0.8405	17.3100 
773.771	-0.0371	0.0317	0.7529	2.2192	5.1910	-0.3625	17.3200 
773.771	-0.0571	0.0347	0.6519	2.0819	4.9438	-0.0604	17.3400 
773.772	-0.0732	0.0664	0.7002	1.8951	4.8120	0.0714	17.3100 
773.789	-0.0493	0.0913	0.7568	1.6479	4.6637	0.3021	17.3100 
773.813	-0.0220	0.0356	0.7734	1.3293	4.4440	0.6921	17.3300 
773.834	-0.0024	0.0791	0.8232	1.0052	4.2792	0.9668	17.3300 
773.847	-0.0132	0.1133	0.9468	0.6702	4.1748	1.1481	17.3200 
773.975	-0.0278	0.0518	0.9395	0.3516	4.0045	1.3513	17.3300 
773.975	-0.0713	0.0361	0.9214	0.1208	3.9166	1.3458	17.3200 
773.986	-0.0923	0.0938	0.9937	0.0000	3.9496	1.1481	17.3200 
773.987	-0.0806	0.1396	1.0220	-0.0879	3.8892	1.0547	17.3200 
773.987	-0.0708	0.1235	1.0786	-0.1868	3.7463	1.1536	17.3100 
773.987	-0.0542	0.1030	1.1182	-0.3021	3.5101	1.3403	17.3100 
773.987	-0.0435	0.0928	1.1328	-0.3900	3.2355	1.5491	17.3200 
774.010	-0.0464	0.0879	1.1201	-0.3900	2.9443	1.7303	17.3300 
774.032	-0.0537	0.1016	1.1265	-0.3406	2.6752	1.8787	17.3200 
774.055	-0.0146	0.1182	1.2646	-0.2582	2.4500	2.1368	17.3100 
774.065	0.0439	0.0859	1.3369	-0.1703	2.1478	2.6752	17.3100 
774.195	0.1733	-0.0015	1.2100	-0.0934	1.6479	3.4332	17.3200 
774.196	0.2290	-0.0430	1.1787	-0.0934	1.2469	4.1254	17.3100 
774.203	0.2876	-0.0293	1.1553	-0.1593	1.0272	4.6637	17.3100 
774.203	0.2710	-0.1323	1.1353	-0.3241	0.8734	5.2185	17.3100 
774.203	0.1567	-0.3857	1.1348	-0.5988	0.8789	5.6030	17.3100 
774.203	0.0010	-0.3965	1.2397	-0.7965	1.2250	5.1416	17.3100 
774.203	-0.0898	-0.0195	1.3027	-0.7745	1.8073	3.7683	17.3200 
774.228	-0.0396	0.1577	1.1587	-0.6152	2.1259	2.6532	17.3000 
774.249	0.0371	-0.0376	0.8857	-0.5273	2.1863	2.4170	17.3000 
774.265	0.0786	-0.1606	0.6899	-0.5988	2.2028	2.5049	17.3000 
774.292	0.0918	-0.0107	0.7334	-0.6152	2.5104	2.1149	17.3000 
774.293	0.0737	0.0522	0.7798	-0.5054	2.9224	1.4886	17.2900 
774.403	0.0513	-0.0557	0.8003	-0.4559	3.2355	1.0876	17.3000 
774.420	0.0625	-0.0635	0.7852	-0.4724	3.4607	0.7141	17.3000 
774.420	0.0356	-0.0103	0.9063	-0.4724	3.7738	0.2252	17.2900 
774.420	0.0586	0.0083	0.9307	-0.4944	4.0265	-0.1593	17.2900 
774.421	0.0840	-0.0107	0.9766	-0.5438	4.1748	-0.3241	17.3100 
774.421	0.1040	0.0229	0.9751	-0.5823	4.2682	-0.4834	17.3000 
774.438	0.0776	0.0479	1.0508	-0.5658	4.4165	-0.6482	17.3100 
774.468	0.0601	0.0298	1.0322	-0.5054	4.5099	-0.6866	17.3000 
774.484	0.0229	-0.0020	1.0649	-0.4340	4.6198	-0.6097	17.3000 
774.503	-0.0005	-0.0132	1.0645	-0.3461	4.7516	-0.4724	17.3000 
774.614	0.0459	0.0908	1.0459	-0.1978	4.9054	-0.3680	17.3200 
774.646	0.1265	0.1875	1.0054	0.0275	5.0208	-0.2692	17.3000 
774.647	0.1064	0.0381	1.0059	0.2856	5.1086	0.0714	17.3000 
774.647	-0.0903	-0.2183	1.1377	0.5219	5.2789	0.5109	17.3000 
774.647	-0.2705	-0.2690	1.3818	0.7141	5.8008	0.2197	17.3000 
774.647	-0.2173	0.2505	1.2090	1.0272	6.1249	-0.5658	17.3100 
774.647	-0.3042	0.1655	1.2100	1.4172	6.3556	-0.5658	17.3100 
774.667	-0.3169	-0.2056	0.9961	1.5106	6.3995	-0.0989	17.2900 
774.765	-0.3330	-0.2500	1.1655	1.3788	6.6907	0.0659	17.3000 
774.786	-0.2964	-0.0591	1.4194	1.2579	6.8335	0.2362	17.3000 
774.787	-0.1729	0.0669	1.3306	1.2195	6.5204	0.7690	17.3000 
774.787	-0.0103	0.0508	1.1392	1.2360	5.9656	1.7523	17.3100 
774.787	0.0308	0.0020	0.9917	1.2250	5.4053	2.8784	17.2900 
774.787	0.0034	0.0039	0.8276	1.1646	5.0427	3.6804	17.2900 
774.787	-0.0225	0.0493	0.7637	1.1261	4.8615	4.1254	17.3000 
774.806	-0.0576	0.0400	0.7314	1.1206	4.7241	4.4879	17.3000 
774.826	-0.0571	0.0361	0.7290	1.0657	4.5813	4.7955	17.3000 
774.846	-0.0117	0.1294	0.6953	0.9778	4.4165	4.8999	17.3100 
774.868	-0.0015	0.1953	0.7578	0.9174	4.2737	5.0098	17.3000 
774.978	-0.0430	0.0396	0.9009	0.7251	4.0869	5.4437	17.2900 
775.004	-0.0459	-0.0288	0.9106	0.4230	3.8507	5.8392	17.3000 
775.004	-0.0293	0.0957	0.9658	0.2417	3.7299	5.8502	17.2800 
775.004	-0.0220	0.1582	0.9907	0.2032	3.6255	5.8063	17.2900 
775.004	-0.0083	0.1475	1.0176	0.1978	3.4882	5.9052	17.2900 
775.004	-0.0161	0.1387	1.0547	0.1923	3.3618	6.0425	17.2900 
775.023	-0.0322	0.1489	1.1030	0.2252	3.2355	6.1359	17.3000 
775.041	-0.0093	0.1572	1.1147	0.2856	3.0487	6.2402	17.3100 
775.053	-0.0200	0.1099	1.0952	0.3680	2.8070	6.4380	17.3100 
775.081	-0.0371	0.0981	1.1152	0.4614	2.6038	6.5753	17.2800 
775.180	0.0015	0.1494	1.3223	0.5493	2.4994	6.6302	17.3100 
775.181	0.0815	0.1436	1.4043	0.5768	2.3126	6.8774	17.3000 
775.204	0.2148	0.0713	1.1279	0.5548	1.9171	7.4213	17.3000 
775.204	0.2217	0.0054	1.1128	0.4999	1.6644	8.1024	17.2900 
775.204	0.1431	-0.1890	1.0415	0.3625	1.5436	8.7122	17.3000 
775.204	0.1357	-0.2407	1.1445	0.0549	1.6919	8.9154	17.3000 
775.205	0.0386	-0.3315	1.4150	-0.2362	2.0435	8.7726	17.3100 
775.223	-0.0132	-0.3408	1.3281	-0.4504	2.2412	8.3661	17.3200 
775.244	-0.0698	-0.0229	1.2993	-0.5548	2.5378	7.4542	17.3000 
775.264	-0.0303	0.0962	1.1904	-0.6097	2.7521	6.7017	17.2800 
775.284	0.0044	-0.1294	0.8799	-0.7635	2.7521	6.8225	17.2800 
775.305	0.0464	-0.1748	0.7407	-0.9723	2.7686	7.0807	17.2800 
775.327	0.0835	0.0391	0.7075	-0.9888	3.0377	6.7181	17.2900 
775.337	0.0659	0.0410	0.6890	-0.8789	3.3014	6.2732	17.2900 
775.363	0.0298	-0.1182	0.7026	-0.9338	3.5596	6.0150	17.2800 
775.483	0.0220	-0.0527	0.7593	-1.0547	3.8342	5.5536	17.2900 
775.503	-0.0015	-0.0317	0.9326	-1.1316	4.1583	5.0427	17.2700 
775.503	0.0098	-0.0850	0.9478	-1.2360	4.3121	4.8230	17.2800 
775.503	0.0859	-0.0283	0.9316	-1.3239	4.3616	4.7351	17.2800 
775.503	0.1045	0.0093	0.9756	-1.2854	4.4000	4.6362	17.2700 
775.503	0.1216	0.0645	0.9683	-1.1646	4.4110	4.5593	17.2600 
775.503	0.0781	0.0186	1.0557	-1.0162	4.4714	4.6472	17.2700 
775.526	0.0596	-0.0059	1.0298	-0.8624	4.4989	4.8010	17.2800 
775.628	0.0430	0.0229	1.1162	-0.6812	4.6417	4.8505	17.2800 
775.661	0.1099	0.1367	1.0811	-0.3955	4.7351	4.8175	17.2700 
775.661	0.1738	0.1533	1.0054	-0.0494	4.7900	4.9438	17.2600 
775.661	0.1094	-0.0005	0.9316	0.3076	4.8230	5.2789	17.2700 
775.661	-0.1836	-0.2300	1.2075	0.6592	5.1801	5.3284	17.2700 
775.661	-0.2847	-0.0674	1.3882	1.0382	5.6964	4.6912	17.2800 
775.680	-0.2173	0.2720	1.2344	1.5326	5.9052	4.1693	17.2700 
775.701	-0.3281	-0.0137	1.3735	1.8842	6.0809	4.5703	17.2700 
775.721	-0.2915	-0.2070	1.0142	1.9171	6.1084	4.9054	17.2600 
775.744	-0.3447	-0.1489	1.2944	1.8677	6.5533	4.9054	17.2600 
775.745	-0.2402	0.0439	1.3101	1.8127	6.7236	5.0867	17.2700 
775.839	-0.1411	-0.0146	1.2231	1.7523	6.5259	5.7184	17.2600 
775.852	-0.0127	0.0044	0.9570	1.6809	6.1139	6.4050	17.2500 
775.852	-0.0293	0.0605	0.9111	1.6644	5.8392	6.8774	17.2500 
775.852	-0.0469	0.0889	0.7598	1.6644	5.5536	7.2455	17.2500 
775.852	-0.0991	0.0205	0.7852	1.5271	5.3888	7.6465	17.2600 
775.871	-0.1001	-0.0063	0.7305	1.3403	5.2020	7.9541	17.2700 
775.900	-0.0972	0.0557	0.7930	1.1865	5.1141	8.1134	17.2600 
775.919	-0.0732	0.1172	0.8579	1.0986	4.9548	8.2452	17.2500 
775.939	-0.0352	0.1460	0.8828	0.9888	4.7571	8.4320	17.2700 
775.961	-0.0103	0.1250	0.9160	0.8295	4.5538	8.6462	17.2600 
775.974	0.0234	0.1274	0.8818	0.6482	4.3451	8.8000	17.2600 
776.001	0.0034	0.1392	0.8701	0.5219	4.2242	8.8110	17.2500 
776.001	-0.0151	0.1606	0.8774	0.4285	4.1913	8.6572	17.2600 
776.020	-0.0771	0.1382	0.9961	0.3076	4.1968	8.4595	17.2500 
776.105	-0.1011	0.1250	1.0410	0.1263	4.1528	8.2727	17.2500 
776.119	-0.0864	0.0996	1.1099	-0.0385	4.0155	8.1793	17.2400 
776.119	-0.0308	0.1108	1.1089	-0.1428	3.7134	8.1793	17.2700 
776.119	0.0083	0.1274	1.1265	-0.1813	3.3289	8.2233	17.2700 
776.119	0.0513	0.1919	1.0522	-0.1483	2.8619	8.1738	17.2500 
776.137	0.1299	0.1870	1.2490	-0.0604	2.5214	8.0750	17.2400 
776.157	0.2109	0.0527	1.3423	-0.0165	2.1313	8.2233	17.2300 
776.179	0.2012	-0.0928	1.2129	-0.0165	1.5710	8.5803	17.2400 
776.199	0.1719	-0.2197	1.3438	-0.0824	1.2469	9.0033	17.2400 
776.219	0.1860	-0.2729	1.3501	-0.2802	1.0217	9.4482	17.2300 
776.335	0.1421	-0.4077	1.2397	-0.5548	0.7965	9.7943	17.2400 
776.357	0.0264	-0.3315	1.3169	-0.8130	0.9778	9.3988	17.2400 
776.357	-0.0503	-0.1377	1.3174	-0.8789	1.4447	8.3771	17.2300 
776.357	0.0020	0.0454	1.1411	-0.7416	1.8127	7.4487	17.2400 
776.357	0.0708	0.0488	0.8730	-0.5109	1.9775	6.8829	17.2400 
776.357	0.0942	0.0161	0.6753	-0.2472	2.1643	6.5039	17.2400 
776.357	0.0361	-0.0493	0.6128	-0.0549	2.5928	5.9930	17.2400 
776.377	-0.0054	-0.0586	0.6851	0.0110	3.2300	5.1636	17.2200 
776.401	-0.0220	-0.0244	0.8193	0.0604	3.8617	4.1913	17.2300 
776.421	-0.0059	-0.0093	0.8164	0.0714	4.3011	3.3179	17.2400 
776.438	0.0225	-0.0176	0.9019	-0.0055	4.6637	2.6312	17.2100 
776.538	0.0225	-0.0054	1.0010	-0.1428	4.9548	2.1698	17.2100 
776.553	0.0308	-0.0688	1.0308	-0.2582	5.0757	2.0160	17.2100 
776.553	0.0586	-0.0317	1.0386	-0.3241	5.1691	1.8018	17.2100 
776.553	0.0918	0.0957	1.0264	-0.2472	5.3064	1.4117	17.2100 
776.553	0.0664	0.1597	1.0161	-0.0549	5.4712	1.1371	17.2200 
776.576	-0.0020	0.0449	0.9873	0.1208	5.6085	1.2744	17.2200 
776.597	-0.0381	-0.0200	0.9912	0.2417	5.7788	1.5710	17.2300 
776.597	-0.0132	0.0332	1.0474	0.3735	5.9985	1.7963	17.2200 
776.618	0.0923	0.1660	1.0381	0.5713	6.1578	1.9446	17.2200 
776.638	0.1362	0.1431	0.9536	0.8679	6.2183	2.2961	17.2100 
776.737	-0.0439	-0.1567	0.9785	1.1755	6.3281	2.9663	17.2100 
776.756	-0.3872	-0.3149	1.3735	1.4392	6.9489	3.0212	17.2200 
776.756	-0.2773	0.1934	1.1133	1.8182	7.3553	2.3236	17.2200 
776.756	-0.3862	0.1587	1.5083	2.2852	7.7893	2.4225	17.1900 
776.756	-0.2983	-0.0376	1.1455	2.4280	7.6904	3.0267	17.2100 
776.756	-0.3115	-0.1851	1.3994	2.3071	7.7838	3.4662	17.2000 
776.774	-0.2705	-0.0366	1.4424	2.1094	7.9486	3.6749	17.2100 
776.794	-0.1563	-0.0151	1.2241	2.0435	7.6685	4.0265	17.2200 
776.815	-0.0640	0.0591	1.0645	2.0160	7.2894	4.5209	17.2100 
776.836	-0.0005	0.1104	0.8477	2.0270	6.8390	5.1141	17.2100 
776.932	0.0151	0.1528	0.7119	2.0105	6.4270	5.6525	17.2200 
776.953	-0.0669	0.0703	0.7021	1.8896	6.1359	6.1359	17.2200 
776.953	-0.0801	0.0459	0.6499	1.6425	5.8887	6.4819	17.2200 
776.953	-0.0610	0.0259	0.7163	1.3458	5.7074	6.7291	17.1900 
776.953	-0.0352	0.0620	0.7271	1.0382	5.5042	6.8555	17.2000 
776.973	-0.0469	0.0894	0.8716	0.7086	5.3723	6.8774	17.2100 
776.993	-0.0303	0.0981	0.9282	0.3571	5.2515	6.8390	17.2000 
777.013	-0.0435	0.0688	0.9419	0.0824	5.1141	6.8500	17.2100 
777.034	-0.0625	0.0522	0.9468	-0.1263	5.0043	6.8500	17.2200 
777.057	-0.0571	0.1157	1.0151	-0.2911	4.9274	6.6522	17.2200 
777.057	-0.0728	0.1343	1.0786	-0.4340	4.8834	6.3940	17.2200 
777.074	-0.1221	0.1011	1.1309	-0.5438	4.8065	6.2073	17.2000 
777.091	-0.1245	0.0859	1.1475	-0.6262	4.6912	6.0974	17.2200 
777.112	-0.1182	0.0781	1.1943	-0.6317	4.4714	6.0809	17.2100 
777.228	-0.0962	0.0840	1.1338	-0.5658	4.1528	6.1414	17.2200 
777.251	-0.0142	0.1025	1.2056	-0.4504	3.7903	6.2073	17.2300 
777.252	0.0415	0.1143	1.3169	-0.3241	3.4717	6.2732	17.2300 
777.252	0.1191	0.1382	1.3237	-0.1813	3.0487	6.4270	17.2500 
777.252	0.2017	-0.0352	1.2158	-0.1154	2.5378	6.8939	17.2300 
777.252	0.2520	-0.1074	1.1606	-0.2142	2.1204	7.4982	17.2200 
777.253	0.2017	-0.2319	1.0698	-0.3735	1.8292	8.0310	17.2200 
777.274	0.1147	-0.4292	1.1245	-0.6592	1.7633	8.3057	17.2300 
777.375	-0.0747	-0.3301	1.2759	-0.8459	2.0819	7.5476	17.2200 
777.385	-0.1426	-0.0830	1.3813	-0.7635	2.5928	6.1578	17.2300 
777.385	-0.0752	0.0522	1.1484	-0.5658	2.7136	5.4053	17.2400 
777.385	-0.0195	-0.0669	0.9556	-0.4559	2.6422	5.3833	17.2300 
777.385	0.0493	-0.1338	0.6997	-0.4120	2.6257	5.4272	17.2200 
777.410	0.0542	-0.0176	0.7261	-0.2417	2.9279	4.9823	17.2200 
777.430	0.0845	0.0537	0.7788	0.0055	3.2629	4.4055	17.2200 
777.452	0.0825	0.0083	0.8271	0.1758	3.5541	3.9441	17.2200 
777.452	0.0859	0.0020	0.8438	0.2856	3.7738	3.4332	17.2200 
777.472	0.0669	0.0181	0.8623	0.4230	4.0100	2.8015	17.2100 
777.566	0.0391	0.0215	0.9019	0.5493	4.2462	2.1313	17.2200 
777.589	0.0264	0.0176	0.9785	0.6317	4.5044	1.4722	17.2000 
777.589	0.0322	0.0728	1.0015	0.6866	4.6912	0.7910	17.2100 
777.589	0.0435	0.1221	1.0273	0.7745	4.8505	0.1813	17.1900 
777.589	0.0903	0.1694	0.9849	0.9448	4.9054	-0.1099	17.2300 
777.608	0.0640	0.0859	1.0308	1.1096	4.9823	-0.0659	17.2200 
777.629	-0.0093	0.0132	1.0537	1.2195	5.1141	0.0275	17.2200 
777.649	-0.0225	0.1255	1.1035	1.3568	5.3888	-0.1099	17.2000 
777.649	0.1177	0.3311	1.0669	1.6150	5.5920	-0.2417	17.2200 
777.669	0.1445	0.2212	1.0591	1.8622	5.6854	0.0494	17.2300 
777.692	-0.0225	-0.1201	1.1050	1.9885	5.8612	0.4614	17.2100 
777.711	-0.2314	-0.2075	1.4429	2.1094	6.5094	0.3461	17.2100 
777.727	-0.2261	0.2710	1.3062	2.4225	7.0752	-0.4340	17.2200 
777.747	-0.1709	0.3779	1.1602	2.8949	7.3334	-0.8734	17.2200 
777.849	-0.2231	-0.1563	0.9175	3.0872	7.3993	-0.4395	17.2200 
777.868	-0.3291	-0.3804	1.0015	2.9059	7.7618	-0.4340	17.2100 
777.868	-0.4209	-0.1636	1.3306	2.6971	8.3551	-1.0876	17.2200 
777.868	-0.3472	0.1167	1.3354	2.6587	8.5968	-1.7084	17.2200 
777.868	-0.1592	0.1343	1.1216	2.8235	8.2672	-1.4722	17.2200 
777.868	-0.0757	-0.0161	0.9751	2.8949	7.7179	-0.6262	17.2200 
777.890	-0.0635	-0.0591	0.8457	2.7850	7.3059	0.0494	17.2200 
777.984	-0.0430	0.0562	0.7275	2.6971	7.0203	0.3241	17.2200 
778.002	-0.0581	0.1045	0.7046	2.6917	6.8115	0.5603	17.2200 
778.003	-0.0396	0.1055	0.6997	2.6422	6.5204	0.9174	17.2100 
778.003	-0.0054	0.0981	0.7549	2.5049	6.1688	1.2909	17.2200 
778.003	0.0015	0.1064	0.8062	2.3236	5.8337	1.5491	17.1900 
778.025	-0.0205	0.1050	0.8789	2.1368	5.5811	1.6809	17.2000 
778.045	-0.0566	0.0703	0.9341	1.9556	5.3943	1.7578	17.2000 
778.068	-0.0806	0.0854	0.9336	1.7963	5.2185	1.6864	17.2000 
778.087	-0.0493	0.1934	0.9849	1.7029	5.0702	1.5326	17.1900 
778.203	-0.0400	0.2197	1.0156	1.6260	4.8834	1.5601	17.2100 
778.219	-0.0562	0.1460	1.0430	1.4832	4.6472	1.8073	17.2100 
778.220	-0.0825	0.0879	1.0879	1.2799	4.4495	2.0544	17.2200 
778.220	-0.1167	0.0430	1.1162	1.1426	4.2737	2.1039	17.2000 
778.220	-0.1021	0.0879	1.0771	1.1591	4.0814	1.9171	17.1900 
778.220	-0.0874	0.1519	1.1338	1.3129	3.9166	1.7358	17.2100 
778.220	-0.0723	0.1382	1.1934	1.5161	3.6749	1.7688	17.2100 
778.244	0.0073	0.0747	1.4409	1.6534	3.4277	2.0709	17.1900 
778.264	0.1113	0.0278	1.4126	1.7523	2.9938	2.5708	17.2000 
778.283	0.2510	0.0283	1.3496	1.8182	2.6202	3.0597	17.2200 
778.305	0.3325	0.0435	1.1836	1.8237	2.2467	3.5156	17.2000 
778.414	0.2524	-0.1704	1.0708	1.6809	2.0105	3.8562	17.2000 
778.436	0.1846	-0.2446	1.0337	1.4502	2.0160	3.6859	17.1900 
778.436	-0.0303	-0.1836	1.2539	1.3568	2.4390	2.6642	17.1900 
778.436	-0.0811	-0.0688	1.1973	1.4117	2.7960	1.3568	17.1900 
778.436	-0.0674	0.0308	1.0664	1.5106	2.9883	0.2747	17.2100 
778.437	-0.0156	0.0225	0.9810	1.5051	3.0597	-0.3571	17.2100 
778.437	0.0313	-0.1294	0.7920	1.3513	3.0157	-0.5164	17.1800 
778.454	0.0674	-0.1172	0.7402	1.1810	3.0322	-0.7196	17.1800 
778.481	0.1084	0.0620	0.7529	1.1481	3.1476	-1.1865	17.1900 
778.501	0.0693	0.0288	0.7979	1.1426	3.2245	-1.5051	17.2000 
778.526	0.0391	-0.0771	0.7769	1.0327	3.2465	-1.6699	17.2100 
778.540	0.0205	-0.0625	0.8247	0.9174	3.3728	-1.9611	17.1900 
778.636	0.0430	0.0259	0.9121	0.8405	3.5486	-2.3401	17.1800 
778.652	0.0513	-0.0132	0.9697	0.7690	3.6969	-2.6093	17.1900 
778.653	0.0454	-0.0386	0.9756	0.7361	3.8068	-2.8949	17.1800 
778.653	0.0674	0.0234	1.0005	0.8624	3.9551	-3.3508	17.1900 
778.653	0.0586	0.1450	1.0508	1.1646	4.1199	-3.8068	17.1800 
778.653	0.0693	0.1855	1.0576	1.5436	4.2133	-3.9771	17.1800 
778.672	0.0752	0.1421	1.0679	1.9116	4.2297	-3.7573	17.2100 
778.686	0.1016	0.1538	1.0347	2.2467	4.2188	-3.4442	17.1900 
778.704	0.2036	0.3081	0.9849	2.5928	4.2352	-3.3124	17.1900 
778.724	0.2192	0.2920	1.0171	2.9279	4.3066	-3.2080	17.1900 
778.744	0.0845	0.0503	0.9961	3.1421	4.4440	-3.0377	17.2000 
778.845	-0.1064	-0.0903	1.2041	3.3069	4.8395	-3.0542	17.1900 
778.851	-0.2393	0.0679	1.4946	3.5266	5.5316	-3.4552	17.2100 
778.851	-0.1001	0.3306	1.1157	3.8617	5.7568	-3.9001	17.2100 
778.851	-0.1704	0.0474	1.0571	4.0869	5.9711	-3.7079	17.2000 
778.851	-0.1802	-0.1816	0.9077	3.9716	6.1304	-3.4003	17.1900 
778.870	-0.3701	-0.2896	1.3193	3.6859	6.7456	-3.5980	17.1800 
778.900	-0.3491	-0.0864	1.3887	3.4772	7.1851	-4.0869	17.1900 
778.920	-0.1880	0.1963	1.3091	3.4607	7.1356	-4.2737	17.1800 
778.941	-0.1006	0.1357	1.1479	3.5486	6.7346	-3.7903	17.1900 
779.036	-0.0386	0.0205	0.9731	3.5431	6.1743	-2.9224	17.1900 
779.051	-0.0464	0.0098	0.8032	3.4332	5.8173	-2.3621	17.1900 
779.051	-0.0542	0.1035	0.7476	3.3508	5.6250	-2.1588	17.1800 
779.051	-0.0371	0.1733	0.6782	3.2629	5.3888	-1.8842	17.1700 
779.051	-0.0415	0.0996	0.6919	3.0652	5.0867	-1.3568	17.1600 
779.051	-0.0381	-0.0054	0.6812	2.7576	4.7351	-0.8734	17.1700 
779.080	-0.0732	0.0146	0.7505	2.4500	4.5044	-0.6757	17.1600 
779.104	-0.0732	0.1230	0.8940	2.1973	4.3231	-0.5878	17.1600 
779.104	-0.0557	0.1372	0.9604	1.9171	4.0430	-0.3351	17.1600 
779.119	-0.0381	0.1060	0.9917	1.6040	3.7079	0.0494	17.1500 
779.139	-0.0356	0.1006	1.0210	1.3184	3.4332	0.4614	17.1600 
779.159	-0.0361	0.1255	1.0664	1.0931	3.2135	0.8679	17.1400 
779.252	-0.0215	0.1865	1.0664	0.9668	2.9773	1.2415	17.1400 
779.269	-0.0225	0.1611	1.1270	0.8954	2.6862	1.8073	17.1500 
779.269	-0.0244	0.1001	1.0967	0.7800	2.3071	2.5049	17.1400 
779.269	-0.0254	0.0371	1.0522	0.6812	1.9336	3.1366	17.1300 
779.269	-0.0176	0.0850	1.0679	0.6757	1.6644	3.5266	17.1600 
779.288	0.0049	0.1548	1.2993	0.7910	1.4667	3.8452	17.1300 
779.308	0.1060	0.1509	1.3804	0.9064	1.0822	4.4440	17.1300 
779.338	0.2690	0.0645	1.2466	0.9448	0.4010	5.3833	17.1400 
779.352	0.3281	-0.0093	1.2197	0.8514	-0.1758	6.3446	17.1200 
779.461	0.3530	-0.0903	1.0205	0.6812	-0.6372	7.1741	17.1400 
779.468	0.2505	-0.2710	1.1084	0.3900	-0.7471	7.8168	17.1500 
779.468	0.0840	-0.3057	1.1563	0.0769	-0.5548	7.7454	17.1400 
779.468	-0.0566	-0.1851	1.3599	-0.0494	-0.0220	6.8719	17.1400 
779.468	-0.0835	0.0117	1.2681	-0.0385	0.3790	6.0425	17.1600 
779.468	-0.0142	0.0078	1.0957	-0.0330	0.4669	5.7678	17.1300 
779.486	0.1035	-0.0239	0.8794	-0.1099	0.4834	5.8887	17.1300 
779.516	0.1299	-0.0654	0.7466	-0.1813	0.5603	6.1578	17.1200 
779.535	0.1230	-0.0293	0.7085	-0.2142	0.8459	6.2787	17.1400 
779.550	0.1099	0.0479	0.7549	-0.1978	1.3129	6.0754	17.1300 
779.670	0.0547	-0.0186	0.8325	-0.2087	1.7743	5.9161	17.1500 
779.685	0.0342	-0.0713	0.8560	-0.2856	2.1698	5.8392	17.1300 
779.686	0.0469	-0.0234	0.9570	-0.3680	2.5433	5.6854	17.1200 
779.686	0.0659	-0.0039	1.0132	-0.4449	2.8290	5.5811	17.1200 
779.686	0.1230	-0.0308	0.9692	-0.5164	2.9224	5.6689	17.1300 
779.686	0.1426	-0.0024	0.9932	-0.5328	2.9938	5.7349	17.1500 
779.686	0.1294	0.0913	1.0669	-0.4065	3.1311	5.6415	17.1200 
779.704	0.0859	0.0410	1.0757	-0.1868	3.2574	5.6854	17.1300 
779.734	0.0220	-0.0254	1.0210	0.0549	3.3563	5.8118	17.1300 
779.756	0.0522	0.1113	1.0674	0.3131	3.5760	5.6689	17.1300 
779.770	0.1914	0.2861	1.0493	0.6482	3.7134	5.4822	17.1200 
779.866	0.2188	0.1450	0.9844	0.9668	3.7024	5.6470	17.1100 
779.893	0.1572	-0.0298	0.9312	1.2195	3.6969	5.8612	17.1200 
779.893	-0.1167	-0.1323	1.2822	1.5161	4.1418	5.4218	17.1300 
779.893	-0.2090	0.0625	1.3682	1.9556	4.6637	4.3506	17.1400 
779.893	-0.1909	0.3286	1.1426	2.5104	4.9109	3.5651	17.1300 
779.893	-0.2354	0.0381	1.0400	2.7411	5.0098	3.7354	17.1300 
779.915	-0.2881	-0.3091	1.0518	2.5653	5.2899	3.9386	17.1500 
779.915	-0.3872	-0.3247	1.3408	2.3401	5.8777	3.7463	17.1300 
779.935	-0.2036	0.1616	1.3525	2.1753	6.1194	3.4113	17.1100 
779.955	-0.1108	0.2578	1.3003	2.1863	6.0095	3.8617	17.1200 
779.976	-0.0166	-0.0801	0.9556	2.1423	5.4987	5.1031	17.1100 
780.067	0.0083	-0.0820	0.8301	1.9061	5.2075	5.9052	17.1200 
780.091	-0.0317	0.1592	0.8765	1.7413	5.2570	6.0205	17.1100 
780.091	-0.0527	0.1392	0.8062	1.6095	5.1910	6.2787	17.1100 
780.091	-0.0723	-0.0508	0.7295	1.3843	5.0317	6.7346	17.1200 
780.091	-0.0654	-0.0059	0.7090	1.1865	4.9384	6.8390	17.1300 
780.111	-0.0571	0.1929	0.8198	1.1536	4.9219	6.6742	17.1200 
780.133	-0.0410	0.1816	0.9189	1.0822	4.8230	6.8115	17.1200 
780.152	-0.0278	-0.0171	0.8833	0.8459	4.5374	7.2510	17.1000 
780.167	-0.0356	0.0112	0.8848	0.6427	4.3726	7.3883	17.1100 
780.283	-0.0410	0.1816	0.9531	0.6372	4.3671	7.1796	17.1000 
780.283	-0.0552	0.1621	0.9893	0.6812	4.3231	7.1631	17.1200 
780.302	-0.0713	0.1226	1.0264	0.6812	4.2188	7.2729	17.1000 
780.302	-0.0620	0.1621	1.0708	0.7141	4.0759	7.3279	17.1200 
780.302	-0.0234	0.1650	1.0762	0.7965	3.8177	7.4487	17.1000 
780.303	-0.0244	0.1040	1.0742	0.8789	3.4717	7.7014	17.1200 
780.303	-0.0400	0.0439	1.1421	0.9778	3.1750	7.8552	17.1000 
780.322	0.0024	0.0850	1.3833	1.1041	3.0103	7.8058	17.1100 
780.336	0.1719	0.1484	1.4463	1.2634	2.6422	7.8552	17.1000 
780.353	0.2217	0.0737	1.3677	1.4063	2.0599	8.3221	17.1000 
780.374	0.2612	-0.0352	1.1191	1.4227	1.4612	9.0857	17.0900 
780.391	0.2305	-0.2144	1.0332	1.2415	1.0272	9.8877	17.0700 
780.511	0.1353	-0.3013	1.0928	0.9229	1.0272	10.0305	17.0800 
780.518	0.0366	-0.1626	1.2817	0.6921	1.4008	9.1791	17.1000 
780.518	-0.0352	-0.0083	1.1958	0.6757	1.7633	8.0695	17.0900 
780.518	-0.0444	-0.0356	1.1157	0.6702	1.9501	7.3004	17.0800 
780.518	0.0249	-0.0195	0.9028	0.6042	2.0599	6.7841	17.0700 
780.518	0.0552	-0.0430	0.8203	0.5328	2.1973	6.4545	17.0700 
780.536	0.1167	-0.0625	0.7441	0.4724	2.3676	6.2238	17.0800 
780.553	0.1323	-0.0513	0.7520	0.4285	2.5983	5.8612	17.0900 
780.655	0.0547	-0.0508	0.8555	0.4065	2.9498	5.2350	17.0600 
780.661	0.0005	-0.0415	0.8789	0.4065	3.3398	4.4275	17.0800 
780.661	0.0215	0.0347	0.9204	0.4120	3.7134	3.5870	17.0800 
780.661	0.0288	0.0195	0.9658	0.3900	4.0265	3.0103	17.0800 
780.661	0.0332	-0.0566	0.9834	0.3186	4.1968	2.8015	17.0800 
780.688	0.0674	-0.0288	1.0005	0.2417	4.3451	2.5378	17.0700 
780.710	0.0771	0.0386	1.0332	0.2802	4.5319	2.1863	17.0800 
780.730	0.0566	0.0181	1.0127	0.4449	4.6417	2.0654	17.0700 
780.751	0.0229	-0.0327	0.9966	0.6317	4.7571	2.1204	17.0800 
780.751	-0.0308	-0.0259	1.0757	0.8569	4.9823	2.1039	17.0700 
780.772	-0.0049	0.0659	1.0503	1.1810	5.1416	2.0435	17.0600 
780.791	0.1299	0.2075	1.0020	1.6040	5.2020	2.1094	17.0700 
780.808	0.1675	0.1445	0.8955	2.1039	5.0867	2.5049	17.0700 
780.828	-0.0669	-0.1758	1.0723	2.5928	5.1361	3.0103	17.0800 
780.916	-0.2114	-0.1167	1.2769	3.0597	5.5261	2.7191	17.0700 
780.948	-0.1982	0.3872	1.1978	3.6145	5.8887	2.0654	17.0900 
780.948	-0.2490	0.3145	1.4043	4.0759	6.2073	2.1094	17.0800 
780.948	-0.1636	-0.0420	1.0615	4.1693	6.1029	2.6917	17.0500 
780.948	-0.2646	-0.1689	1.2295	4.0430	6.4764	2.8729	17.0700 
780.969	-0.2793	0.0586	1.3433	3.8892	7.0258	2.4719	17.0500 
780.969	-0.1733	0.1953	1.2417	3.8287	7.2345	2.2577	17.0700 
781.080	-0.0449	0.1089	0.9941	3.7848	7.0422	2.7136	17.0500 
781.107	0.0039	0.0239	0.8164	3.6639	6.6797	3.3508	17.0700 
781.107	-0.0083	0.1235	0.7192	3.5211	6.4929	3.5486	17.0800 
781.107	-0.0425	0.2217	0.7100	3.4497	6.4270	3.4827	17.0700 
781.107	-0.0493	0.1523	0.6831	3.3069	6.2787	3.6145	17.0500 
781.107	-0.0464	0.0479	0.6841	2.9883	6.0974	3.8452	17.0500 
781.128	-0.0195	0.1006	0.7563	2.5928	6.0095	3.7354	17.0600 
781.128	-0.0444	0.1602	0.8501	2.2302	6.0150	3.3783	17.0500 
781.148	-0.1245	0.0713	0.9771	1.8567	6.0370	3.1311	17.0700 
781.167	-0.1426	0.0068	0.9805	1.4941	5.9985	2.9443	17.0600 
781.188	-0.1411	0.0928	1.0176	1.1975	6.0040	2.6093	17.0500 
781.284	-0.1255	0.1514	1.0337	1.0052	5.9930	2.2906	17.0500 
781.302	-0.1030	0.1040	1.0669	0.8405	5.9106	2.1918	17.0600 
781.302	-0.1084	0.0610	1.0757	0.7141	5.7678	2.1588	17.0500 
781.302	-0.1396	0.0898	1.1660	0.6592	5.6580	1.9611	17.0500 
781.302	-0.1406	0.1729	1.1821	0.6757	5.5536	1.6260	17.0500 
781.324	-0.1333	0.1655	1.1362	0.7581	5.3668	1.5820	17.0700 
781.343	-0.1021	0.1055	1.1006	0.8405	5.1251	1.8073	17.0500 
781.367	-0.0244	0.0752	1.2354	0.9393	4.9274	2.1039	17.0500 
781.367	0.0347	0.1177	1.1646	1.1426	4.6143	2.3840	17.0500 
781.383	0.0483	0.0083	1.1289	1.3953	4.2792	2.8125	17.0500 
781.488	0.1172	-0.0273	1.0967	1.5106	3.9935	3.3453	17.0600 
781.501	0.1748	-0.1011	1.1206	1.4941	3.7189	3.9716	17.0500 
781.501	0.1963	-0.1758	1.1162	1.3513	3.4662	4.5099	17.0500 
781.501	0.0679	-0.2622	1.2612	1.1810	3.4662	4.6088	17.0400 
781.501	-0.0483	-0.1924	1.3750	1.0931	3.6694	4.1528	17.0600 
781.524	-0.1123	-0.0347	1.3818	1.1371	3.9166	3.4113	17.0400 
781.544	-0.0122	0.1602	1.0879	1.2579	3.9056	2.9773	17.0400 
781.564	0.0313	0.0674	0.9312	1.3239	3.7903	3.1860	17.0400 
781.586	0.0464	-0.0933	0.6914	1.2689	3.7354	3.5541	17.0500 
781.586	0.0415	-0.0210	0.7017	1.2469	3.9990	3.4717	17.0600 
781.699	0.0083	0.0928	0.7725	1.3568	4.3561	3.1311	17.0400 
781.718	-0.0093	0.0649	0.7852	1.4227	4.5758	2.9828	17.0400 
781.719	-0.0317	-0.0264	0.8252	1.3568	4.6857	2.9663	17.0400 
781.719	-0.0039	-0.0151	0.8677	1.1481	4.7736	2.8894	17.0500 
781.719	0.0327	0.0161	0.9844	0.9229	4.8724	2.8839	17.0300 
781.719	0.0669	0.0293	1.0063	0.7690	4.8834	3.0157	17.0300 
781.741	0.1001	0.0688	1.0205	0.6647	4.8615	3.1256	17.0300 
781.762	0.1118	0.1387	1.0469	0.6757	4.8450	3.2080	17.0400 
781.782	0.0752	0.0874	0.9980	0.7800	4.7626	3.5211	17.0200 
781.804	0.0356	-0.0005	1.0278	0.8569	4.7186	3.9606	17.0300 
781.898	0.0269	0.0625	1.0864	0.9283	4.7900	4.1803	17.0300 
781.920	0.1201	0.2217	1.0723	1.0767	4.8450	4.2462	17.0100 
781.920	0.2305	0.2197	1.0415	1.2799	4.7845	4.5044	17.0100 
781.920	0.1304	-0.0293	0.9355	1.4886	4.6582	5.0922	17.0200 
781.920	-0.2656	-0.3022	1.2388	1.7358	5.0262	5.2295	17.0200 
781.921	-0.3311	-0.0947	1.3374	2.1478	5.5151	4.6143	17.0200 
781.939	-0.2119	0.3442	1.1533	2.7026	5.7349	4.0375	17.0200 
781.960	-0.3022	0.0869	1.3110	2.9773	5.9052	4.5538	17.0300 
781.981	-0.2153	-0.2261	1.0884	2.8510	5.8282	5.2899	17.0100 
782.001	-0.2397	-0.1465	1.3306	2.6532	6.1908	5.4932	17.0100 
782.002	-0.1450	0.1528	1.4224	2.5488	6.3995	5.5591	17.0200 
782.024	-0.0757	0.0947	1.2852	2.5323	6.1633	6.1304	17.0200 
782.044	0.0249	0.0293	0.9634	2.4994	5.7458	6.8610	17.0200 
782.060	0.0371	0.1343	0.8784	2.5049	5.5261	7.2675	17.0000 
782.080	0.0151	0.1514	0.7334	2.5269	5.3668	7.5970	17.0000 
782.200	-0.0205	0.0811	0.6885	2.4335	5.2350	7.9596	17.0100 
782.218	-0.0342	0.0801	0.6865	2.2632	5.1636	8.1573	17.0000 
782.218	-0.0371	0.0796	0.7441	2.0544	5.1196	8.2562	16.9900 
782.218	-0.0322	0.1084	0.8174	1.8018	5.0482	8.2727	17.0000 
782.218	-0.0234	0.0977	0.8706	1.4996	4.9823	8.2947	17.0100 
782.218	-0.0127	0.0605	0.9106	1.1810	4.8889	8.3167	17.0000 
782.240	-0.0449	0.0278	0.9458	0.9229	4.8505	8.2617	17.0000 
782.341	-0.0654	0.0928	0.9980	0.7855	4.9329	7.9102	16.9700 
782.350	-0.0967	0.1177	1.0469	0.7416	5.0922	7.4323	16.9900 
782.351	-0.1367	0.1714	1.1001	0.7690	5.2075	6.9489	16.9500 
782.351	-0.1250	0.2095	1.1338	0.8350	5.2460	6.5643	16.9900 
782.351	-0.0542	0.1948	1.1240	0.8789	5.0427	6.4380	16.9800 
782.351	-0.0684	0.1045	1.1143	0.8899	4.7791	6.5424	16.9700 
782.378	-0.0752	0.0898	1.0015	0.9283	4.4495	6.4929	16.9600 
782.398	-0.0859	0.1992	1.1099	1.0547	4.3231	6.1359	16.9700 
782.419	-0.0200	0.1987	1.2368	1.2030	4.1144	5.8997	16.9700 
782.440	0.1309	0.0059	1.1304	1.3019	3.5815	6.1084	16.9700 
782.440	0.1548	-0.1021	1.1313	1.3129	3.1036	6.4764	16.9600 
782.552	0.2358	-0.1001	1.3223	1.1755	2.8619	6.7181	16.9800 
782.568	0.2339	-0.1675	1.1899	0.9943	2.4500	7.0532	16.9700 
782.569	0.0010	-0.4277	1.3066	0.6976	2.4445	7.0642	16.9700 
782.569	-0.0713	-0.3003	1.2021	0.4559	2.7081	5.9766	16.9600 
782.569	-0.1509	0.0493	1.3477	0.4834	3.2849	4.6033	16.9600 
782.569	-0.0503	0.1519	1.0317	0.6427	3.3508	3.8562	16.9700 
782.586	0.0205	-0.0464	0.7686	0.7196	3.3398	3.8068	16.9500 
782.602	0.0688	-0.0791	0.6162	0.7031	3.3673	3.7903	16.9600 
782.618	0.0161	-0.0703	0.7935	0.6921	3.7463	3.3783	16.9600 
782.638	0.0059	-0.0894	0.7871	0.6976	4.1748	2.7081	16.9600 
782.660	0.0024	0.0024	0.8687	0.7855	4.6802	1.7688	16.9600 
782.676	0.0181	0.1157	0.9063	0.9558	5.1086	0.8569	16.9500 
782.779	0.0142	0.1226	0.9810	1.0712	5.3503	0.4834	16.9500 
782.802	0.0283	0.0151	0.9253	1.0876	5.3778	0.5988	16.9600 
782.803	0.0518	0.0190	0.9517	1.0052	5.4657	0.6317	16.9500 
782.803	0.0586	0.0918	0.9692	0.9998	5.6415	0.3845	16.9500 
782.803	0.0483	0.1606	1.0273	1.0876	5.8282	0.1648	16.9500 
782.803	-0.0063	0.0825	1.0601	1.2085	5.9711	0.3131	16.9400 
782.817	-0.0459	-0.0229	1.0586	1.2964	6.0864	0.6592	16.9600 
782.837	0.0127	0.0854	1.0840	1.4227	6.2512	0.8350	16.9500 
782.858	0.1304	0.2031	1.0405	1.7084	6.3116	1.0657	16.9500 
782.875	0.1382	0.0952	1.0181	2.0050	6.3391	1.5601	16.9400 
782.978	-0.0488	-0.1333	1.0566	2.2961	6.4600	2.0544	16.9500 
783.002	-0.3198	-0.2705	1.3203	2.6642	7.0203	2.1149	16.9300 
783.002	-0.2988	0.2485	1.1802	3.0927	7.5256	1.6095	16.9400 
783.002	-0.3022	0.3423	1.2070	3.6145	7.8387	1.6260	16.9300 
783.002	-0.2402	-0.0439	1.0313	3.8507	7.8497	2.4609	16.9300 
783.002	-0.2451	-0.1963	1.1240	3.7958	7.9156	3.1091	16.9300 
783.018	-0.2397	-0.0313	1.3911	3.6365	8.2123	3.2135	16.9200 
783.038	-0.1909	0.1128	1.3022	3.5870	8.2068	3.2410	16.9200 
783.058	-0.1138	0.1367	1.1235	3.6584	7.9761	3.6639	16.9300 
783.073	-0.0469	0.1274	0.9023	3.7628	7.5366	4.3451	16.9200 
783.093	-0.0234	0.1357	0.7695	3.7903	7.1796	5.0372	16.9300 
783.203	-0.0352	0.1328	0.7417	3.7024	6.8829	5.6470	16.9200 
783.235	-0.0161	0.1309	0.6455	3.5541	6.5204	6.1908	16.9300 
783.235	-0.0195	0.0747	0.6484	3.3783	6.1414	6.7236	16.9100 
783.235	-0.0249	0.0659	0.7163	3.1256	5.8777	6.9708	16.9100 
783.235	-0.0244	0.1455	0.8291	2.9004	5.7404	6.8335	16.9200 
783.236	-0.0322	0.1919	0.9194	2.6971	5.6305	6.5643	16.9100 
783.236	-0.0679	0.1133	0.9673	2.4609	5.4382	6.4380	16.9300 
783.256	-0.0938	0.0610	0.9600	2.2412	5.2460	6.3171	16.9100 
783.377	-0.1060	0.1167	1.0454	2.0874	5.1636	6.0150	16.9100 
783.411	-0.0874	0.1782	1.1006	1.9885	5.0647	5.7019	16.9100 
783.412	-0.0688	0.1812	1.1143	1.9226	4.8834	5.5701	16.9100 
783.412	-0.0713	0.1348	1.1260	1.8732	4.6747	5.6195	16.9100 
783.412	-0.0854	0.0923	1.1206	1.8677	4.4604	5.6964	16.9100 
783.412	-0.1104	0.1035	1.1050	1.9336	4.2847	5.7074	16.9200 
783.412	-0.0737	0.2129	1.0664	2.0764	4.1089	5.6909	16.9100 
783.432	-0.0029	0.2041	1.1250	2.2577	3.8782	5.8612	16.9100 
783.453	0.1299	0.0889	1.1455	2.4390	3.4827	6.2622	16.9200 
783.467	0.1299	-0.0117	1.1011	2.6038	3.0487	6.7017	16.9100 
783.584	0.1348	-0.0952	1.3594	2.6202	2.8949	7.0422	16.9000 
783.601	0.2119	-0.0898	1.3281	2.5159	2.6752	7.4652	16.9100 
783.601	0.2046	-0.2256	1.2095	2.3016	2.4060	7.9321	16.9100 
783.601	0.1226	-0.2749	1.2212	2.0325	2.3785	7.9816	16.9000 
783.601	-0.1411	-0.1997	1.4360	1.8512	2.8619	7.2235	16.8900 
783.601	-0.1392	0.0283	1.3179	1.8182	3.3124	6.2238	16.9000 
783.601	-0.0181	0.1724	1.0122	1.9775	3.4772	5.7788	16.9000 
783.619	0.0518	0.0415	0.7568	2.1149	3.4552	5.9985	16.8900 
783.635	0.1089	-0.1099	0.5967	2.1094	3.5101	6.4050	16.8900 
783.653	0.0796	-0.0215	0.6772	2.1039	3.9166	6.1304	16.8900 
783.674	0.0371	0.1060	0.7808	2.1753	4.4769	5.3558	16.8900 
783.690	0.0273	0.0771	0.7988	2.2247	4.8999	4.7241	16.8900 
783.806	0.0264	-0.0146	0.8394	2.1478	5.2020	4.2188	16.9000 
783.818	0.0117	-0.0229	0.9478	1.9940	5.5316	3.6530	16.9000 
783.818	0.0605	0.0439	1.0161	1.8622	5.8063	3.0267	16.8900 
783.818	0.0522	0.0396	1.0264	1.8347	5.9711	2.5049	16.8900 
783.818	0.0503	0.0713	0.9946	1.9116	6.0974	2.0050	16.9000 
783.818	0.0439	0.1318	1.0562	2.0599	6.3116	1.4337	16.9000 
783.836	0.0156	0.1655	1.0786	2.2522	6.5094	1.0107	16.8900 
783.851	-0.0273	0.0864	1.0972	2.4225	6.6522	0.9174	16.9100 
783.951	0.0269	0.1245	1.0723	2.5598	6.8060	0.8514	16.8900 
783.971	0.1011	0.2119	1.0103	2.7631	6.9489	0.6976	16.8900 
783.971	0.0947	0.1426	1.0024	3.0432	7.1027	0.6207	16.8900 
783.971	0.0259	0.0581	0.9355	3.3124	7.2675	0.5548	16.8900 
783.971	-0.2354	-0.0815	1.2319	3.6035	7.7069	0.4175	16.9000 
783.971	-0.3403	-0.0718	1.3599	3.9496	8.2562	0.1758	16.8900 
783.990	-0.2275	0.1841	1.0996	4.3781	8.4155	-0.1154	16.8900 
784.010	-0.3667	0.0029	1.2466	4.7461	8.7012	0.0494	16.8900 
784.031	-0.2896	-0.0879	1.0293	4.7955	8.7726	0.0824	16.8900 
784.049	-0.3247	-0.0981	1.2471	4.6747	9.1296	-0.0659	16.8800 
784.073	-0.3403	-0.0527	1.3945	4.5264	9.2999	-0.1483	16.8700 
784.089	-0.2759	0.0078	1.3320	4.4440	9.2065	-0.0494	16.8700 
784.107	-0.1621	0.0732	1.0771	4.5209	8.7836	0.1703	16.8900 
784.127	-0.0708	0.1572	0.9063	4.6362	8.4595	0.5713	16.8900 
784.232	-0.0547	0.1401	0.8135	4.6692	8.1464	1.2360	16.8800 
784.252	-0.0801	0.0117	0.6987	4.4879	7.8497	1.8951	16.8800 
784.252	-0.0952	0.0239	0.7329	4.1803	7.6794	2.1863	16.8700 
784.252	-0.0532	0.1045	0.7803	3.9331	7.4762	2.2522	16.8800 
784.252	-0.0269	0.1284	0.7578	3.7903	7.1796	2.3401	16.8700 
784.252	-0.0327	0.1030	0.8022	3.6035	6.9983	2.3840	16.8600 
784.268	-0.0459	0.1216	0.8237	3.3508	6.9434	2.2687	16.8700 
784.289	-0.0879	0.1230	0.9668	2.9993	7.0532	2.0380	16.8900 
784.309	-0.1030	0.0864	0.9253	2.6697	7.0587	1.7523	16.8800 
784.326	-0.1548	0.1016	0.9326	2.4664	7.1356	1.3898	16.8800 
784.345	-0.2002	0.1411	1.0376	2.3676	7.2894	1.0547	16.8800 
784.447	-0.1699	0.1865	1.0381	2.3126	7.2784	0.9174	16.8800 
784.468	-0.1245	0.2012	1.0596	2.2302	7.1851	0.9283	16.8700 
784.468	-0.0708	0.1978	1.0342	2.1588	6.9653	1.0986	16.8800 
784.468	-0.1060	0.1299	1.0693	2.1149	6.7676	1.3623	16.8900 
784.468	-0.1641	0.1167	1.0684	2.0929	6.5973	1.5106	16.8800 
784.468	-0.1577	0.1826	1.1245	2.1204	6.4764	1.5875	16.8800 
784.486	-0.0552	0.2148	1.1890	2.2357	6.1743	1.8677	16.8800 
784.508	0.0205	0.1230	1.2925	2.3676	5.6964	2.4445	16.8800 
784.527	0.0796	0.0537	1.1606	2.5214	5.0592	3.0542	16.8600 
784.546	0.0811	0.0425	1.2559	2.6697	4.6527	3.4882	16.8600 
784.653	0.1489	0.0557	1.1060	2.7411	4.2737	3.9111	16.8600 
784.666	0.1343	-0.0786	1.1294	2.6532	3.9771	4.4824	16.8500 
784.666	0.1563	-0.1616	1.1094	2.3895	3.8507	4.7791	16.8600 
784.666	0.0342	-0.2075	1.3267	2.1478	4.0649	4.5923	16.8600 
784.666	-0.0806	-0.1011	1.2988	1.9995	4.3616	3.8782	16.8500 
784.666	-0.1162	0.0303	1.2075	1.9446	4.6198	2.9663	16.8500 
784.688	-0.0635	0.1162	0.9453	1.9391	4.7736	2.4005	16.8500 
784.705	-0.0527	-0.0225	0.8213	1.8677	4.8724	2.3676	16.8500 
784.726	0.0029	-0.0508	0.7373	1.6589	5.0757	2.3126	16.8500 
784.746	0.0254	0.0498	0.7642	1.4996	5.4108	1.9940	16.8500 
784.765	0.0181	0.0010	0.7983	1.4172	5.6909	1.6754	16.8500 
784.873	-0.0068	-0.0703	0.8286	1.2634	5.9326	1.3623	16.8500 
784.884	-0.0430	-0.0220	0.9136	1.0822	6.2622	0.7471	16.8400 
784.884	-0.0239	0.0601	0.9697	0.9338	6.5918	0.0439	16.8400 
784.884	0.0024	0.0879	0.9531	0.8514	6.7456	-0.3076	16.8500 
784.884	0.0186	0.0796	0.9585	0.7800	6.8005	-0.3845	16.8400 
784.884	0.0176	0.0513	1.0117	0.6976	6.8939	-0.3021	16.8400 
784.902	0.0044	0.0483	1.0386	0.6482	7.0093	-0.2087	16.8500 
784.923	-0.0381	0.0420	1.0693	0.6812	7.1741	-0.1208	16.8300 
784.943	-0.0508	0.0234	1.0845	0.7690	7.3608	0.0055	16.8300 
784.963	-0.0088	0.0771	1.0649	0.9283	7.5476	0.1318	16.8300 
784.984	0.0498	0.1475	1.0542	1.1810	7.7509	0.3406	16.8400 
785.089	0.0552	0.1011	1.0186	1.4832	7.9376	0.6647	16.8600 
785.101	-0.1201	-0.1030	1.1440	1.7963	8.2837	0.9393	16.8600 
785.101	-0.3164	-0.1724	1.4517	2.0874	8.9648	0.8130	16.8600 
785.101	-0.3022	0.3218	1.1348	2.4609	9.3878	0.1813	16.8500 
785.101	-0.3447	0.2798	1.1802	2.9224	9.8053	0.3296	16.8600 
785.118	-0.2935	-0.1499	0.8018	3.0872	9.8328	1.1371	16.8400 
785.139	-0.3730	-0.3574	1.0039	2.9718	10.2722	1.4832	16.8500 
785.162	-0.3530	-0.1045	1.2158	2.7466	10.5743	1.2469	16.8500 
785.175	-0.2437	0.1753	1.3315	2.6862	10.5249	1.1865	16.8500 
785.201	-0.1143	0.1387	1.0591	2.8510	9.9207	2.0160	16.8500 
785.201	-0.0586	-0.0186	0.9053	2.9169	9.1956	3.2629	16.8500 
785.317	-0.0552	0.0347	0.8169	2.7905	8.7341	4.0814	16.8600 
785.334	-0.0830	0.1074	0.8364	2.6642	8.4210	4.6198	16.8500 
785.334	-0.0610	0.1147	0.7295	2.5598	8.0145	5.2185	16.8400 
785.334	-0.0557	0.0762	0.7588	2.3895	7.6080	5.8887	16.8500 
785.334	-0.0151	0.1074	0.7402	2.1643	7.2400	6.3281	16.8300 
785.334	-0.0151	0.1411	0.8369	1.9556	6.9708	6.6302	16.8300 
785.354	-0.0537	0.1074	0.9146	1.6974	6.7401	6.8939	16.8400 
785.450	-0.0938	0.0645	0.9937	1.4282	6.5643	7.1521	16.8500 
785.467	-0.0918	0.0879	0.9517	1.2305	6.3611	7.3059	16.8400 
785.467	-0.0786	0.1196	0.9922	1.1096	6.1908	7.3553	16.8500 
785.467	-0.0498	0.1870	1.0439	1.0547	6.0150	7.3334	16.8500 
785.467	-0.0557	0.1924	1.1128	1.0547	5.8173	7.3773	16.8500 
785.467	-0.0791	0.1572	1.1304	1.0492	5.5481	7.5531	16.8600 
785.487	-0.0830	0.1147	1.0967	1.0547	5.2185	7.7728	16.8400 
785.503	-0.0884	0.0806	1.0449	1.0931	4.9274	7.8827	16.8500 
785.519	-0.0762	0.1523	1.0234	1.1975	4.6967	7.7509	16.8500 
785.539	-0.0249	0.1460	1.2002	1.3678	4.4824	7.6410	16.8600 
785.559	0.0913	0.0908	1.2944	1.5381	4.0869	7.7563	16.8500 
785.582	0.1372	0.0425	1.1592	1.7798	3.5706	7.9156	16.8600 
785.599	0.1484	-0.0024	1.1777	1.9940	3.2629	7.9211	16.8500 
785.717	0.2334	-0.0127	1.2896	2.0380	3.1311	7.8552	16.8500 
785.734	0.2612	-0.0815	1.2432	1.9226	2.9828	7.9706	16.8600 
785.734	0.1704	-0.3032	1.1641	1.6644	2.8070	8.0969	16.8500 
785.734	0.0337	-0.3311	1.2134	1.3843	2.9169	7.7179	16.8600 
785.734	-0.1489	-0.0552	1.3472	1.2854	3.4827	6.2897	16.8400 
785.734	-0.1045	0.1558	1.1758	1.3843	3.8947	4.8615	16.8600 
785.756	0.0273	0.1055	0.7935	1.5875	3.8947	4.3231	16.8500 
785.857	0.0488	-0.0869	0.6455	1.6425	3.8397	4.3890	16.8700 
785.877	0.0732	-0.0874	0.6621	1.5546	3.9771	4.2462	16.8600 
785.877	0.0479	-0.0210	0.8120	1.5491	4.4275	3.4882	16.8600 
785.877	0.0562	-0.0166	0.8413	1.6534	4.8120	2.5598	16.8600 
785.877	0.0195	-0.0576	0.8438	1.7468	5.1691	1.4832	16.8700 
785.877	0.0068	0.0010	0.8813	1.8677	5.5591	0.1813	16.8700 
785.877	-0.0034	0.1284	0.9380	1.9556	5.8887	-1.0437	16.8500 
785.896	-0.0107	0.1304	1.0186	1.9611	6.0645	-1.8622	16.8600 
785.918	0.0420	0.0693	0.9502	1.8896	5.9601	-2.3676	16.8500 
785.938	0.0439	0.0576	1.0488	1.8182	5.9381	-2.8510	16.8700 
785.956	0.0552	0.1050	1.0835	1.8347	5.9271	-3.4552	16.8600 
786.070	0.0215	0.1333	1.1221	1.9171	6.0150	-4.0814	16.8700 
786.086	-0.0249	0.1304	1.1392	1.9995	6.1578	-4.5868	16.8600 
786.086	0.0054	0.1406	1.0879	2.0874	6.2787	-4.8944	16.8700 
786.086	0.0742	0.1182	1.0562	2.1973	6.4105	-5.0647	16.8500 
786.086	0.1118	0.1396	0.9961	2.3566	6.5533	-5.2899	16.8600 
786.086	-0.0161	0.0381	1.0503	2.5873	6.8280	-5.5426	16.8600 
786.100	-0.2134	-0.1294	1.2158	2.8290	7.2839	-5.7733	16.8600 
786.116	-0.3154	0.0269	1.2280	3.1091	7.7948	-6.2512	16.8700 
786.135	-0.2451	0.2324	1.0806	3.4717	8.0914	-6.5479	16.8600 
786.155	-0.2505	0.0024	0.9966	3.6584	8.2123	-6.1359	16.8600 
786.175	-0.2412	-0.1855	1.0220	3.5596	8.3002	-5.7404	16.8800 
786.254	-0.2441	-0.1226	1.2148	3.3179	8.5089	-5.8228	16.8600 
786.266	-0.2441	0.0234	1.3403	3.1641	8.6188	-6.0150	16.8700 
786.266	-0.1426	0.1694	1.1807	3.1641	8.3826	-5.8722	16.8600 
786.267	-0.0942	0.0688	1.0669	3.1476	7.9761	-5.2734	16.8500 
786.293	-0.0640	-0.0098	0.8540	3.0212	7.5366	-4.5758	16.8600 
786.312	-0.0669	0.0146	0.8105	2.8345	7.2839	-4.1034	16.8600 
786.334	-0.0659	0.0918	0.7588	2.6917	7.0642	-3.7958	16.8700 
786.334	-0.0771	0.1113	0.7715	2.5873	6.8335	-3.4772	16.8600 
786.354	-0.0762	0.0742	0.7744	2.4664	6.5643	-3.0872	16.8500 
786.374	-0.0767	0.0942	0.8398	2.3236	6.3831	-2.7301	16.8600 
786.395	-0.0596	0.1191	0.8823	2.2083	6.2183	-2.3346	16.8600 
786.417	-0.0488	0.0806	0.9106	2.0599	6.0040	-1.8512	16.8500 
786.529	-0.0269	0.1182	0.8931	1.9006	5.7953	-1.4886	16.8400 
786.551	-0.0293	0.1777	0.9258	1.7963	5.6360	-1.2854	16.8600 
786.551	-0.0400	0.2031	0.9985	1.6919	5.5042	-1.1151	16.8400 
786.551	-0.0669	0.1606	1.0747	1.5381	5.3503	-0.8844	16.8400 
786.551	-0.1284	0.0366	1.1328	1.3678	5.1801	-0.5328	16.8500 
786.551	-0.1611	0.0044	1.1763	1.2579	5.0427	-0.2417	16.8400 
786.571	-0.1138	0.1484	1.1206	1.3074	4.8779	-0.1318	16.8400 
786.665	-0.0913	0.2114	1.0889	1.4886	4.6857	0.0769	16.8500 
786.682	-0.0532	0.1641	1.1284	1.7029	4.4440	0.6152	16.8400 
786.682	0.0122	0.1270	1.3145	1.8457	4.2297	1.2964	16.8300 
786.682	0.1865	0.1406	1.2085	1.9666	3.7903	2.0380	16.8400 
786.682	0.1548	0.0322	1.2036	2.1204	3.3453	2.8455	16.8400 
786.682	0.1938	-0.0283	1.1206	2.1313	3.0322	3.5706	16.8500 
786.700	0.1929	-0.1377	1.1743	2.0215	2.9333	4.2023	16.8500 
786.721	0.2095	-0.1455	1.1123	1.7853	2.9224	4.4824	16.8400 
786.734	0.0923	-0.1826	1.2622	1.5656	3.1421	4.3890	16.8500 
786.752	-0.0254	-0.1841	1.2666	1.4227	3.4387	3.9221	16.8400 
786.772	-0.1284	-0.0342	1.2520	1.3348	3.8397	3.1641	16.8300 
786.874	-0.0596	0.1377	1.0669	1.3293	4.0649	2.5323	16.8500 
786.882	0.0103	0.0420	0.8501	1.3184	4.1638	2.5763	16.8500 
786.882	0.0532	-0.0791	0.6836	1.1591	4.2023	2.9828	16.8500 
786.882	0.0601	-0.0322	0.6880	0.9833	4.4824	3.0157	16.8400 
786.882	0.0366	0.0620	0.7534	0.9174	4.8889	2.6532	16.8300 
786.906	-0.0034	0.0190	0.8032	0.8569	5.2020	2.3676	16.8500 
786.929	-0.0029	-0.0190	0.8433	0.7141	5.4382	2.1533	16.8500 
786.949	-0.0122	-0.0396	0.9189	0.4834	5.6580	1.9556	16.8500 
786.969	-0.0015	-0.0273	0.9712	0.2472	5.8502	1.7853	16.8500 
786.991	0.0479	0.0425	1.0186	0.0604	5.9601	1.6919	16.8400 
787.005	0.0732	0.0708	1.0547	-0.0549	6.0095	1.6809	16.8400 
787.021	0.0859	0.0713	1.0239	-0.0659	5.9821	1.7908	16.8500 
787.033	0.0635	0.0547	1.0249	-0.0165	6.0095	1.9446	16.8500 
787.149	-0.0005	0.0356	1.0493	0.0714	6.1523	2.0929	16.8500 
787.167	-0.0430	0.0239	1.1211	0.1703	6.4050	2.2632	16.8400 
787.167	0.0806	0.1914	1.0225	0.3241	6.5533	2.3785	16.8400 
787.167	0.1675	0.2173	1.0762	0.5603	6.6852	2.5928	16.8500 
787.167	0.1016	0.0049	0.9932	0.8075	6.7841	2.9718	16.8600 
787.167	-0.0879	-0.1680	1.1128	1.0876	7.1521	3.2300	16.8600 
787.187	-0.3867	-0.1445	1.4609	1.5216	7.8607	3.0927	16.8500 
787.288	-0.2876	0.1553	1.3188	2.0929	8.3551	2.7740	16.8600 
787.299	-0.2217	0.2349	1.1528	2.6807	8.5748	2.9388	16.8600 
787.299	-0.2061	-0.0049	0.9048	2.9663	8.6353	3.6969	16.8400 
787.299	-0.3374	-0.2988	1.0547	2.8949	9.0033	4.1748	16.8400 
787.299	-0.3916	-0.2197	1.1787	2.7191	9.5361	4.0869	16.8500 
787.299	-0.3418	0.0093	1.4126	2.5653	9.8492	3.9496	16.8600 
787.325	-0.1719	0.1738	1.2119	2.5488	9.5636	4.0924	16.8500 
787.346	-0.0835	0.0801	1.0332	2.6422	9.0747	4.8999	16.8400 
787.368	-0.0298	0.0591	0.8818	2.6532	8.5089	5.8063	16.8600 
787.368	-0.0454	0.0591	0.8027	2.5543	8.1683	6.4819	16.8500 
787.387	-0.0405	0.0957	0.7080	2.4445	7.8497	6.8939	16.8500 
787.483	-0.0664	0.0894	0.7300	2.3511	7.6080	7.2015	16.8500 
787.501	-0.0601	0.0576	0.7134	2.1808	7.3279	7.4927	16.8500 
787.501	-0.0420	0.0977	0.7793	1.9226	7.0862	7.6025	16.8400 
787.501	-0.0410	0.0933	0.8013	1.6534	6.8390	7.6410	16.8400 
787.501	-0.0801	0.0498	0.9136	1.3348	6.6138	7.7124	16.8400 
787.527	-0.0649	0.0532	0.9185	1.0492	6.3776	7.7783	16.8500 
787.547	-0.0630	0.0649	0.9253	0.8459	6.1908	7.7948	16.8500 
787.547	-0.0522	0.1631	0.9829	0.7251	6.0919	7.6959	16.8500 
787.567	-0.0605	0.2070	1.0273	0.6482	6.0095	7.6190	16.8400 
787.587	-0.0601	0.2021	1.0815	0.5328	5.8832	7.7014	16.8500 
787.701	-0.0889	0.1470	1.1289	0.3900	5.7019	8.0035	16.8300 
787.717	-0.0923	0.0732	1.0576	0.2637	5.4108	8.3276	16.8400 
787.717	-0.0811	0.0718	1.0664	0.1813	5.1581	8.4320	16.8300 
787.717	-0.0674	0.1865	1.0508	0.1758	4.9438	8.2947	16.8400 
787.717	-0.0503	0.2461	1.0625	0.2362	4.7241	8.1738	16.8400 
787.717	0.0459	0.1880	1.2280	0.2472	4.4000	8.2892	16.8300 
787.749	0.1128	0.0645	1.3555	0.2032	3.9111	8.7781	16.8500 
787.768	0.1128	-0.1694	1.2690	0.1483	3.2904	9.3713	16.8500 
787.768	0.1553	-0.1641	1.2676	0.0714	2.9059	9.6075	16.8400 
787.788	0.2031	-0.0747	1.2417	0.0000	2.7081	9.6680	16.8600 
787.804	0.1440	-0.2495	1.2100	-0.2527	2.5818	9.9866	16.8300 
787.823	0.0020	-0.4492	1.1753	-0.6866	2.6422	10.0085	16.8400 
787.891	-0.1279	-0.2905	1.3257	-0.9833	3.1256	9.0637	16.8400 
787.921	-0.1514	0.0288	1.2334	-0.9503	3.5101	7.8333	16.8300 
787.922	-0.0674	0.0747	0.9780	-0.8020	3.5541	7.1191	16.8300 
787.922	0.0254	-0.0342	0.7520	-0.7306	3.5156	7.0203	16.8300 
787.940	0.0537	-0.1172	0.6426	-0.7690	3.5266	7.0422	16.8300 
787.962	0.0078	-0.1499	0.7085	-0.8240	3.7903	6.7126	16.8400 
787.983	-0.0127	-0.0752	0.7739	-0.7690	4.2792	5.7898	16.8300 
787.984	-0.0327	0.0298	0.8994	-0.6042	4.8010	4.7021	16.8200 
788.006	-0.0078	0.0605	0.9502	-0.4834	5.1801	3.9386	16.8300 
788.109	-0.0156	-0.0332	0.9580	-0.4779	5.3284	3.7573	16.8200 
788.140	0.0151	-0.0869	0.9492	-0.6097	5.3888	3.9056	16.8300 
788.140	0.0483	-0.0342	0.9644	-0.7031	5.4657	3.9386	16.8300 
788.140	0.0752	0.0762	1.0146	-0.6812	5.6030	3.6804	16.8300 
788.141	0.0752	0.1841	1.0830	-0.5603	5.7294	3.4937	16.8200 
788.141	0.0698	0.1006	1.0371	-0.4175	5.7239	3.7134	16.8300 
788.162	0.0249	-0.0146	1.0513	-0.3406	5.7843	3.9990	16.8200 
788.181	0.0034	0.0586	1.0806	-0.2527	6.0040	4.0265	16.8300 
788.201	0.0215	0.1860	1.0986	-0.0659	6.2897	3.9935	16.8100 
788.215	0.0820	0.1812	1.0620	0.1538	6.4819	4.1748	16.8200 
788.321	0.0781	0.0239	1.0186	0.3461	6.6083	4.5154	16.8100 
788.333	-0.0483	-0.0752	1.0225	0.5658	6.7950	4.7186	16.8100 
788.333	-0.3091	-0.1563	1.3608	0.8899	7.2784	4.6912	16.8200 
788.333	-0.2881	0.0391	1.3286	1.2689	7.6245	4.4879	16.8000 
788.333	-0.2202	0.1587	1.0376	1.6974	7.6080	4.5319	16.8100 
788.333	-0.2988	-0.0796	0.9634	1.9391	7.6245	5.1141	16.8100 
788.359	-0.3506	-0.2090	0.9443	1.8951	7.8003	5.4492	16.8000 
788.380	-0.3364	-0.0273	1.2896	1.7688	8.0914	5.5536	16.8000 
788.400	-0.2183	0.0601	1.3394	1.6644	7.9266	6.0370	16.8000 
788.414	-0.0498	0.0107	1.1089	1.5710	7.3279	6.9104	16.8000 
788.525	-0.0161	0.0044	1.0586	1.4502	6.7950	7.6849	16.7900 
788.525	-0.0142	0.0757	0.9434	1.3403	6.3666	8.2452	16.7900 
788.558	-0.0479	0.0410	0.8994	1.2085	6.0205	8.8275	16.7800 
788.558	-0.0381	0.0332	0.7793	1.0382	5.6470	9.3549	16.7900 
788.558	-0.0269	0.0361	0.7568	0.9009	5.2679	9.8383	16.7800 
788.558	-0.0127	0.0859	0.7402	0.7965	4.9274	10.2118	16.7900 
788.558	-0.0234	0.1270	0.7842	0.6921	4.6967	10.4810	16.7900 
788.581	-0.0264	0.1260	0.8726	0.5603	4.5044	10.7996	16.7800 
788.604	-0.0137	0.0693	0.9028	0.3516	4.2847	11.2390	16.7800 
788.604	-0.0073	0.0132	0.9072	0.1099	4.0540	11.6620	16.7700 
788.619	-0.0190	0.0552	0.9082	-0.0330	3.9166	11.8488	16.7800 
788.730	-0.0483	0.1519	0.9976	-0.0494	3.9056	11.8433	16.7600 
788.757	-0.0371	0.1602	1.0405	-0.0439	3.8507	11.9366	16.7700 
788.757	-0.0479	0.1206	1.1313	-0.0824	3.7463	12.1564	16.7800 
788.757	-0.0640	0.0913	1.1514	-0.1318	3.6035	12.4036	16.7700 
788.758	-0.0635	0.0977	1.1230	-0.1263	3.4442	12.5464	16.7800 
788.758	-0.0552	0.1338	1.1035	-0.0494	3.2849	12.6123	16.7700 
788.778	-0.0322	0.1611	1.1836	0.0604	3.1366	12.6892	16.7700 
788.799	0.0313	0.1611	1.3604	0.1538	2.9608	12.9474	16.7600 
788.800	0.1714	0.1094	1.3281	0.1978	2.5323	13.5681	16.7800 
788.818	0.1855	-0.0225	1.1870	0.1978	1.9171	14.4855	16.7700 
788.836	0.2388	-0.1821	1.1064	0.1099	1.5381	15.3314	16.7700 
788.856	0.1846	-0.2754	1.0747	0.0055	1.3403	15.9082	16.7700 
788.953	0.1045	-0.2661	1.1016	-0.1483	1.4941	15.8807	16.7700 
788.966	0.0562	-0.1567	1.1885	-0.2417	1.8896	15.1666	16.7500 
788.967	-0.0117	-0.0835	1.2407	-0.2307	2.3346	14.3921	16.7500 
788.967	-0.0386	-0.0986	1.1655	-0.1868	2.6257	13.8153	16.7400 
788.967	-0.0093	-0.0093	0.9355	-0.1044	2.8290	13.1891	16.7400 
788.985	0.0010	0.0254	0.8555	0.0439	3.0542	12.5684	16.7400 
789.016	0.0293	-0.0449	0.7183	0.1648	3.2245	12.1619	16.7600 
789.036	0.0410	-0.0659	0.6802	0.2142	3.4058	11.7773	16.7500 
789.051	0.0063	-0.0313	0.7563	0.2692	3.7408	11.1072	16.7600 
789.069	0.0083	0.0313	0.8125	0.3461	4.0979	10.2283	16.7700 
789.085	0.0127	0.0513	0.9429	0.3351	4.3835	9.5306	16.7600 
789.163	0.0010	-0.0244	0.9629	0.2087	4.5483	9.2175	16.7500 
789.193	0.0283	-0.0688	0.9492	0.0000	4.6252	9.1296	16.7500 
789.194	0.0474	-0.0483	0.9868	-0.1703	4.7791	8.9209	16.7500 
789.194	0.0728	0.0439	1.0166	-0.2417	4.9768	8.4705	16.7600 
789.194	0.0854	0.1694	1.0698	-0.2142	5.1471	8.0804	16.7600 
789.213	0.0679	0.0957	1.0068	-0.1318	5.1471	8.1299	16.7600 
789.234	0.0166	-0.0142	1.0059	-0.0879	5.2185	8.3276	16.7600 
789.248	-0.0371	0.0024	1.0918	-0.0220	5.4657	8.4320	16.7600 
789.275	0.0488	0.1689	1.0601	0.1318	5.6305	8.5199	16.7300 
789.382	0.1636	0.2280	1.0527	0.3680	5.6635	8.7616	16.7600 
789.382	0.1563	0.0518	1.0073	0.5823	5.6085	9.2120	16.7500 
789.411	-0.0371	-0.1563	1.0928	0.7745	5.7623	9.6021	16.7600 
789.411	-0.3398	-0.1743	1.4121	1.0931	6.2512	9.4702	16.7400 
789.411	-0.2725	0.0889	1.2744	1.5656	6.4655	9.1187	16.7400 
789.411	-0.2671	0.0781	1.2637	2.0050	6.5698	9.4537	16.7200 
789.411	-0.2739	-0.0977	1.0688	2.1313	6.5314	10.1514	16.7300 
789.433	-0.2896	-0.1924	1.1729	1.9830	6.7621	10.5524	16.7400 
789.433	-0.2529	-0.0674	1.2334	1.8127	7.0367	10.7446	16.7100 
789.550	-0.1582	-0.0151	1.2632	1.6809	7.0367	11.1621	16.7300 
789.565	-0.0620	0.0322	1.0732	1.5930	6.7017	11.6895	16.7200 
789.566	0.0103	0.1323	0.9214	1.5601	6.3281	12.2168	16.7300 
789.566	0.0225	0.1387	0.7866	1.5601	5.8997	12.8156	16.7400 
789.567	0.0103	0.0342	0.7144	1.4117	5.5591	13.5352	16.7300 
789.567	-0.0200	-0.0205	0.7070	1.1151	5.2899	14.1284	16.7300 
789.591	-0.0244	0.0439	0.7378	0.8075	5.0702	14.4031	16.7200 
789.610	-0.0244	0.0645	0.7607	0.5603	4.8175	14.5349	16.7400 
789.633	-0.0361	0.0566	0.8369	0.3186	4.5648	14.6008	16.7200 
789.634	-0.0601	0.0640	0.9175	0.0604	4.4055	14.5898	16.7200 
789.654	-0.0610	0.0610	0.9678	-0.1813	4.2242	14.6118	16.7300 
789.752	-0.0601	0.0767	0.9639	-0.4010	4.0485	14.7107	16.7100 
789.765	-0.0503	0.0889	0.9541	-0.5878	3.8782	14.8535	16.7000 
789.765	-0.0610	0.0928	1.0171	-0.7361	3.7848	14.9908	16.7200 
789.765	-0.0654	0.1138	1.0596	-0.8459	3.7024	15.1227	16.7200 
789.765	-0.0400	0.1646	1.1094	-0.9174	3.5486	15.2545	16.7200 
789.790	0.0010	0.1401	1.1689	-0.9888	3.2739	15.5841	16.7000 
789.809	-0.0005	0.0864	1.1230	-1.1041	2.8839	16.0895	16.7000 
789.830	0.0137	0.0874	1.0962	-1.2305	2.5214	16.4795	16.7200 
789.850	0.0288	0.1377	1.1055	-1.3129	2.2357	16.7102	16.7200 
789.954	0.0889	0.0815	1.3345	-1.3403	1.9556	17.0233	16.7100 
789.961	0.1572	0.0146	1.3745	-1.3843	1.5271	17.5671	16.7100 
789.961	0.1577	-0.0605	1.2915	-1.4008	1.0162	18.1439	16.7100 
789.961	0.2236	-0.0259	1.1270	-1.4557	0.5988	18.5724	16.7000 
789.961	0.2598	-0.1851	1.1572	-1.6260	0.4010	19.1217	16.7200 
789.961	0.2134	-0.3804	1.0786	-1.9995	0.3186	19.8853	16.7200 
789.989	0.0547	-0.5239	1.1670	-2.4115	0.4944	20.1379	16.7100 
790.009	-0.0298	-0.2847	1.2637	-2.6147	0.9833	19.2261	16.7100 
790.029	-0.1289	-0.1235	1.3691	-2.5378	1.5820	17.9297	16.7100 
790.049	-0.0352	0.0005	1.0630	-2.4390	1.7743	17.1277	16.7000 
790.049	0.0371	-0.0415	0.9873	-2.4170	1.9006	16.9189	16.7000 
790.072	0.1152	-0.1392	0.7056	-2.4719	1.9391	16.9904	16.7100 
790.089	0.1016	-0.1558	0.7349	-2.5269	2.2687	16.8420	16.7000 
790.108	0.0659	-0.0703	0.7549	-2.4554	2.7301	16.2378	16.6900 
790.128	0.0298	-0.0415	0.7969	-2.3071	3.2355	15.4962	16.6900 
790.229	0.0146	-0.0732	0.7959	-2.1753	3.6365	14.8645	16.6900 
790.248	0.0166	-0.0767	0.8413	-2.1039	4.0265	14.2657	16.7000 
790.248	0.0225	-0.0278	0.9438	-2.0709	4.3945	13.6670	16.6900 
790.248	0.0239	-0.0283	0.9658	-2.0709	4.6857	13.2275	16.6900 
790.248	0.0547	-0.0049	0.9619	-2.0599	4.8834	12.8925	16.6900 
790.248	0.0645	0.0342	1.0283	-1.9775	5.0647	12.6233	16.6900 
790.268	0.0610	0.0278	1.0498	-1.8457	5.1471	12.5793	16.7000 
790.288	0.0459	-0.0054	1.0581	-1.6864	5.1691	12.6782	16.7000 
790.309	-0.0127	-0.0225	1.0957	-1.5051	5.2679	12.7881	16.6900 
790.327	0.0225	0.0742	1.0903	-1.2909	5.3668	12.7661	16.6900 
790.347	0.2012	0.2471	1.1060	-1.0492	5.3998	12.7167	16.6900 
790.448	0.2148	0.1338	1.0352	-0.8295	5.3284	12.9419	16.6800 
790.466	-0.0454	-0.1934	1.0352	-0.6757	5.4327	13.2495	16.6900 
790.466	-0.2583	-0.1841	1.2417	-0.4449	5.9601	13.0243	16.6800 
790.466	-0.3032	0.1143	1.4536	-0.0549	6.5094	12.6178	16.6800 
790.466	-0.1387	0.3198	1.1704	0.3845	6.4984	12.5903	16.6600 
790.485	-0.1128	0.0356	0.9556	0.6317	6.3501	13.2880	16.6700 
790.507	-0.1367	-0.1890	0.8574	0.5109	6.3226	14.0350	16.6600 
790.521	-0.2915	-0.2275	1.1235	0.2582	6.7621	14.1284	16.6800 
790.548	-0.3340	-0.1353	1.3384	0.0824	7.1796	13.8647	16.6700 
790.548	-0.1533	0.0996	1.1724	0.0055	7.1136	13.7329	16.6600 
790.651	-0.0684	0.0996	1.1699	-0.0110	6.7786	14.0680	16.6800 
790.666	0.0586	0.0313	0.8652	-0.0714	6.2292	14.7437	16.6800 
790.666	0.0063	-0.0762	0.8604	-0.2252	5.8997	15.3754	16.6600 
790.666	-0.0454	0.0132	0.7310	-0.4175	5.7898	15.4523	16.6800 
790.666	-0.0967	0.0737	0.7754	-0.5109	5.8228	15.2271	16.6600 
790.667	-0.1055	0.0381	0.7749	-0.5878	5.7898	15.1447	16.6700 
790.685	-0.0981	0.0186	0.7925	-0.7251	5.6909	15.1666	16.6700 
790.705	-0.0332	0.1177	0.9067	-0.8569	5.5701	15.1227	16.6700 
790.726	-0.0034	0.0859	0.9160	-0.9558	5.3723	15.1831	16.6700 
790.747	0.0156	-0.0015	0.8921	-1.0876	5.1141	15.2655	16.6600 
790.853	0.0181	0.0703	0.9023	-1.1810	4.9658	14.9854	16.6500 
790.887	-0.0508	0.1255	0.9834	-1.1700	4.9768	14.4470	16.6300 
790.888	-0.0947	0.1006	1.0273	-1.1426	5.0043	13.9911	16.6500 
790.888	-0.1265	0.0918	1.0962	-1.1316	4.9988	13.5791	16.6500 
790.888	-0.1162	0.1133	1.1572	-1.0876	4.8724	13.2111	16.6700 
790.888	-0.0996	0.0791	1.1636	-1.0052	4.6362	13.0078	16.6700 
790.904	-0.0874	0.0645	1.1323	-0.9064	4.3781	12.8979	16.6600 
790.905	-0.0752	0.1284	1.1245	-0.7690	4.1583	12.7606	16.6600 
790.926	-0.0146	0.1323	1.2241	-0.5988	3.9331	12.7881	16.6500 
790.942	0.0693	0.0532	1.3696	-0.4559	3.6145	13.0737	16.6400 
790.965	0.1904	0.0698	1.2202	-0.2582	3.0487	13.3813	16.6400 
791.075	0.1836	-0.0283	1.1470	-0.0934	2.5928	13.7494	16.6500 
791.103	0.2236	-0.1470	1.1074	-0.0989	2.3346	14.0680	16.6500 
791.103	0.1680	-0.2671	1.1821	-0.2527	2.3401	14.2383	16.6600 
791.103	0.0918	-0.2847	1.1670	-0.4449	2.4390	13.9636	16.6400 
791.103	-0.0093	-0.2310	1.2793	-0.5823	2.7850	13.1616	16.6500 
791.104	-0.0972	-0.0474	1.2817	-0.5933	3.1750	12.0685	16.6300 
791.104	-0.0625	0.0562	1.1133	-0.5768	3.4662	11.1346	16.6400 
791.123	0.0073	-0.0024	0.8989	-0.5878	3.6969	10.7446	16.6500 
791.142	0.0361	-0.1001	0.7178	-0.6866	3.9331	10.6622	16.6400 
791.161	0.0195	-0.1089	0.7393	-0.7800	4.3671	10.3876	16.6300 
791.182	0.0151	-0.0161	0.7437	-0.8020	4.8450	9.7614	16.6300 
791.284	0.0000	-0.0063	0.7837	-0.7690	5.2405	9.1406	16.6200 
791.299	-0.0068	-0.0581	0.7954	-0.8240	5.5481	8.6353	16.6400 
791.299	-0.0332	-0.1143	0.9194	-0.9778	5.8887	8.1354	16.6300 
791.299	-0.0239	-0.0757	0.9570	-1.0931	6.2018	7.5751	16.6500 
791.299	0.0005	0.0215	1.0000	-1.1096	6.4435	7.0587	16.6300 
791.320	0.0332	0.0776	1.0576	-1.0822	6.5918	6.7291	16.6400 
791.340	0.0498	0.0210	1.0430	-1.0217	6.5918	6.7621	16.6300 
791.354	0.0313	-0.0459	1.0186	-0.9668	6.5479	6.9653	16.6300 
791.384	-0.0508	0.0054	1.1230	-0.8624	6.6632	6.9983	16.6200 
791.385	-0.0557	0.0850	1.1602	-0.6592	6.8225	6.9763	16.6000 
791.472	0.0601	0.2095	1.1260	-0.3845	6.8939	7.1356	16.6300 
791.491	0.1587	0.1729	1.0947	-0.1099	6.8445	7.5641	16.6200 
791.491	0.0913	-0.0220	0.9507	0.1538	6.7841	8.0255	16.6300 
791.491	-0.1133	-0.1348	1.0630	0.4504	7.0422	8.1628	16.6100 
791.491	-0.3423	-0.0605	1.2998	0.8899	7.5476	7.8168	16.6300 
791.508	-0.2485	0.2358	1.1147	1.4172	7.8278	7.3718	16.6300 
791.539	-0.2783	0.0386	1.1226	1.9006	7.8717	7.6849	16.6200 
791.553	-0.2896	-0.1362	1.0024	2.0764	7.8882	8.2672	16.6100 
791.582	-0.2876	-0.0796	1.2070	2.0160	8.1738	8.3441	16.6300 
791.582	-0.2583	0.0435	1.2871	1.9446	8.4045	8.3002	16.6100 
791.684	-0.1621	0.0127	1.2300	1.8787	8.3112	8.6243	16.6300 
791.699	-0.1035	-0.0161	1.1099	1.7963	7.9541	9.0912	16.6200 
791.699	-0.0562	0.0859	0.9546	1.7413	7.6685	9.4153	16.6100 
791.699	-0.0562	0.0903	0.8472	1.7578	7.3553	9.7229	16.6000 
791.699	-0.0581	0.0835	0.7500	1.7523	7.0587	10.0250	16.6100 
791.700	-0.0762	0.0913	0.7354	1.7139	6.8445	10.2173	16.6000 
791.718	-0.0542	0.1333	0.7290	1.6425	6.6412	10.3107	16.6100 
791.739	-0.0342	0.1313	0.7729	1.5161	6.4215	10.4425	16.6100 
791.759	-0.0322	0.1152	0.7886	1.3239	6.2018	10.5853	16.6100 
791.780	-0.0659	0.0464	0.8813	1.0712	6.0754	10.6567	16.6100 
791.807	-0.0938	0.0464	0.9268	0.8130	6.0150	10.4700	16.6100 
791.907	-0.0967	0.1392	0.9629	0.6592	5.9601	10.1019	16.6000 
791.935	-0.0952	0.1558	0.9346	0.5988	5.8557	9.8108	16.5900 
791.935	-0.1069	0.1367	1.0020	0.4944	5.7733	9.6625	16.6000 
791.935	-0.1318	0.1118	1.0747	0.3461	5.6854	9.5966	16.6100 
791.935	-0.1318	0.0894	1.1450	0.2362	5.5151	9.5306	16.6000 
791.935	-0.1206	0.0962	1.1743	0.1868	5.2899	9.4427	16.6000 
791.955	-0.1162	0.1284	1.1367	0.2307	4.9933	9.3713	16.6000 
792.050	-0.1074	0.1631	1.0884	0.3186	4.7021	9.3549	16.6000 
792.065	-0.0425	0.1572	1.2285	0.4230	4.4440	9.4977	16.5800 
792.065	0.0654	0.1558	1.3374	0.5328	4.0210	9.8767	16.6000 
792.066	0.1299	0.0146	1.2490	0.6427	3.2959	10.6677	16.5900 
792.066	0.1621	-0.1250	1.1235	0.6482	2.6038	11.5082	16.5900 
792.066	0.2422	-0.1357	1.1123	0.5658	2.2247	12.0081	16.6000 
792.085	0.1890	-0.2129	1.1636	0.4340	2.0435	12.3047	16.6000 
792.098	0.1172	-0.2676	1.1782	0.2307	1.9775	12.2937	16.5800 
792.118	0.0024	-0.2520	1.2925	0.0659	2.1863	11.7828	16.5800 
792.137	-0.0986	-0.0928	1.2979	0.0165	2.4774	10.9149	16.5900 
792.157	-0.0635	0.0581	1.1509	0.0879	2.6862	10.1074	16.6000 
792.259	0.0503	0.0942	0.9063	0.1923	2.7466	9.7614	16.5800 
792.282	0.1021	-0.0049	0.7271	0.1923	2.7740	9.8712	16.5700 
792.282	0.0967	-0.1030	0.6602	0.0769	2.9498	9.9811	16.5700 
792.282	0.0410	-0.0566	0.7202	-0.0494	3.4552	9.5471	16.5700 
792.282	-0.0059	0.0034	0.8428	-0.1044	4.0540	8.7781	16.5700 
792.282	-0.0117	-0.0068	0.8579	-0.1538	4.5209	8.1848	16.5700 
792.300	-0.0010	-0.0459	0.8730	-0.2747	4.8724	7.8333	16.5700 
792.317	0.0234	-0.0410	0.9355	-0.4559	5.2020	7.5806	16.5600 
792.335	0.0313	-0.0234	1.0073	-0.6042	5.4877	7.3993	16.5800 
792.354	0.0430	-0.0005	1.0366	-0.6976	5.6854	7.2675	16.5800 
792.468	0.0669	0.0786	1.0820	-0.6976	5.8282	7.1301	16.5800 
792.481	0.0737	0.0845	1.0762	-0.5988	5.8887	7.1191	16.5700 
792.481	0.0293	-0.0010	1.0620	-0.4395	5.9216	7.3279	16.5800 
792.481	-0.0278	0.0063	1.0977	-0.2747	6.0754	7.4817	16.5700 
792.481	0.0234	0.1743	1.1147	-0.0769	6.3226	7.4432	16.5600 
792.481	0.1216	0.2734	1.0845	0.1813	6.4764	7.4377	16.5800 
792.501	0.1333	0.1030	1.0278	0.4230	6.5753	7.7344	16.5600 
792.516	-0.0332	-0.1050	1.1128	0.6152	6.7786	8.0695	16.5800 
792.534	-0.2368	-0.1826	1.3486	0.8350	7.3718	7.8827	16.5700 
792.553	-0.2100	0.2173	1.1484	1.2250	7.7399	7.2015	16.5800 
792.574	-0.1943	0.2734	1.0151	1.7358	7.8882	7.0148	16.5700 
792.592	-0.2729	-0.1768	0.8569	1.8787	7.9431	7.3883	16.5700 
792.698	-0.3735	-0.3345	1.0186	1.7358	8.4045	7.1576	16.5700 
792.712	-0.3887	-0.0737	1.2266	1.5491	8.8330	6.5588	16.5700 
792.712	-0.3369	0.0723	1.3550	1.4996	8.9264	6.4325	16.5700 
792.712	-0.1475	0.0332	1.1304	1.5161	8.4375	7.0917	16.5600 
792.712	-0.0825	-0.0659	1.0435	1.4557	7.8607	8.0200	16.5700 
792.712	-0.0371	0.0479	0.9438	1.3513	7.4213	8.6298	16.5700 
792.732	-0.0425	0.0840	0.8765	1.2799	7.0422	9.1351	16.5500 
792.754	-0.0396	0.0542	0.7466	1.1700	6.6412	9.6185	16.5600 
792.770	-0.0122	0.0952	0.7290	1.0382	6.3116	9.9536	16.5600 
792.791	-0.0381	0.0791	0.7554	0.9119	6.0205	10.2448	16.5500 
792.811	-0.0405	0.0776	0.7568	0.7471	5.7458	10.4480	16.5700 
792.898	-0.0605	0.1040	0.8628	0.5328	5.5920	10.4919	16.5700 
792.916	-0.0503	0.0771	0.8643	0.3131	5.4053	10.6238	16.5400 
792.916	-0.0781	0.0303	0.9180	0.0934	5.2844	10.7611	16.5500 
792.916	-0.0801	0.0942	0.9565	-0.0494	5.2185	10.7117	16.5500 
792.916	-0.0981	0.1377	1.0225	-0.1263	5.1691	10.5963	16.5600 
792.931	-0.0854	0.1763	1.0396	-0.1868	5.0812	10.5029	16.5500 
792.949	-0.0659	0.1812	1.0820	-0.2362	4.9658	10.5084	16.5700 
792.971	-0.0610	0.1064	1.1250	-0.3296	4.8065	10.6787	16.5700 
792.989	-0.0674	0.0752	1.1333	-0.4285	4.6307	10.7831	16.5700 
793.009	-0.0337	0.1621	1.1045	-0.4614	4.4330	10.6348	16.5600 
793.115	0.0059	0.2095	1.1855	-0.4340	4.2517	10.4810	16.5600 
793.132	0.0444	0.1108	1.3628	-0.4120	4.0320	10.6567	16.5600 
793.133	0.1074	-0.0063	1.3477	-0.4065	3.5925	11.0852	16.5600 
793.133	0.1709	-0.0557	1.1748	-0.4065	3.0377	11.4038	16.5600 
793.133	0.2378	-0.0205	1.1299	-0.4559	2.7905	11.4862	16.5700 
793.133	0.1992	-0.1245	1.1157	-0.5603	2.6697	11.7114	16.5800 
793.149	0.0864	-0.4170	1.0991	-0.8459	2.6971	12.0575	16.5700 
793.169	0.0049	-0.4146	1.1211	-1.1261	2.8125	11.9092	16.5700 
793.269	-0.1489	-0.1250	1.3018	-1.1646	3.4003	10.5304	16.5800 
793.281	-0.1338	0.0376	1.1885	-1.0327	3.8013	9.1351	16.5700 
793.281	-0.0127	0.0464	0.9438	-0.9009	3.9661	8.4100	16.5700 
793.281	0.0352	-0.0679	0.7856	-0.8514	4.0540	8.1903	16.5800 
793.281	0.0708	-0.0942	0.6646	-0.8185	4.2188	7.9980	16.5600 
793.306	0.0298	-0.0444	0.7290	-0.7141	4.5923	7.4487	16.5500 
793.326	-0.0190	-0.0210	0.7847	-0.5768	5.0262	6.6083	16.5600 
793.346	-0.0552	-0.0376	0.7964	-0.4614	5.3888	5.7568	16.5500 
793.366	-0.0557	-0.0439	0.8379	-0.4340	5.7294	4.9164	16.5700 
793.474	-0.0483	-0.0132	0.9487	-0.4614	6.0370	4.2133	16.5700 
793.506	-0.0313	0.0313	0.9897	-0.4999	6.2457	3.7299	16.5600 
793.506	0.0332	0.0747	1.0103	-0.5273	6.3062	3.5760	16.5800 
793.506	0.0684	0.0425	1.0640	-0.5438	6.2952	3.7463	16.5900 
793.506	0.0859	0.0352	1.0679	-0.5109	6.2457	3.9111	16.5700 
793.506	0.0581	0.0835	1.0942	-0.3955	6.3171	3.9001	16.5700 
793.507	-0.0039	0.0542	1.1323	-0.2307	6.4490	3.9935	16.5800 
793.528	-0.0107	0.0176	1.1157	-0.0824	6.5973	4.2023	16.5700 
793.548	0.0723	0.1147	1.0889	0.0879	6.7786	4.3176	16.6000 
793.548	0.1211	0.1704	1.0825	0.3296	6.9434	4.3835	16.5800 
793.569	-0.0029	0.0195	1.0864	0.6207	7.1246	4.5428	16.5800 
793.590	-0.1816	-0.1626	1.2207	0.9558	7.4762	4.7241	16.5700 
793.605	-0.3511	-0.0327	1.2524	1.4117	7.9486	4.4769	16.5800 
793.708	-0.2651	0.2930	1.0249	1.9995	8.2343	4.0814	16.5700 
793.734	-0.3081	0.1807	1.1128	2.3950	8.5309	4.5593	16.5800 
793.734	-0.2358	-0.1001	0.9023	2.4280	8.5254	5.5261	16.5700 
793.734	-0.3091	-0.3320	1.1304	2.1973	8.8660	6.0040	16.5800 
793.734	-0.3027	-0.1592	1.2539	2.0544	9.1681	5.9216	16.5600 
793.734	-0.1982	0.2002	1.2715	2.1259	9.1846	5.7898	16.5700 
793.765	-0.1265	0.1606	1.1401	2.2797	8.8330	6.2952	16.5800 
793.784	-0.0420	-0.0405	0.8853	2.2797	8.3057	7.2455	16.5600 
793.798	-0.0630	-0.0205	0.8823	2.1643	8.0640	7.8058	16.5700 
793.816	-0.0913	0.1230	0.8008	2.1149	7.9651	7.8937	16.5800 
793.941	-0.0942	0.1211	0.8203	2.1259	7.8717	8.0200	16.5800 
793.965	-0.0786	0.0254	0.7715	2.0874	7.7069	8.2562	16.5800 
793.966	-0.0991	0.0425	0.8037	2.0490	7.6410	8.2068	16.5800 
793.966	-0.0918	0.1738	0.8691	2.0874	7.6685	7.8827	16.5700 
793.966	-0.0747	0.1479	0.9341	2.1423	7.6685	7.7344	16.5700 
793.966	-0.0713	0.0425	0.8237	2.1698	7.5806	7.6959	16.5700 
793.966	-0.1177	0.0737	0.8594	2.2357	7.6520	7.3553	16.5700 
793.966	-0.1836	0.1992	0.9209	2.4005	7.8442	6.7786	16.5700 
793.987	-0.1704	0.2466	1.0000	2.5873	7.9761	6.3007	16.5700 
794.075	-0.1274	0.1963	1.0630	2.6971	7.9102	6.1414	16.5600 
794.103	-0.0923	0.1577	1.0596	2.7301	7.7179	6.0425	16.5700 
794.103	-0.1548	0.0991	1.0903	2.7576	7.6080	5.8447	16.5600 
794.104	-0.1738	0.1484	1.0371	2.8510	7.4927	5.4437	16.5600 
794.104	-0.1528	0.1626	1.2651	3.0103	7.4542	5.0812	16.5800 
794.122	-0.1294	0.0747	1.4351	3.2025	7.2455	5.0208	16.5800 
794.139	0.0527	0.1958	1.1948	3.4497	6.7401	5.0317	16.5900 
794.154	0.0581	0.1636	1.2871	3.7079	6.3226	5.2185	16.5800 
794.171	0.1528	0.0195	1.0518	3.7683	5.8063	5.7953	16.5900 
794.188	0.1270	-0.1582	1.0898	3.6639	5.3943	6.5369	16.5900 
794.290	0.0938	-0.2227	1.0767	3.4497	5.2460	6.8225	16.5800 
794.320	0.0186	-0.0923	1.1973	3.2849	5.4218	6.4215	16.5700 
794.321	-0.0366	-0.0459	1.2070	3.1970	5.6635	5.8282	16.5700 
794.321	-0.0698	-0.0269	1.0845	3.1201	5.8667	5.2789	16.5700 
794.321	-0.0654	0.0488	1.0068	3.0487	6.1469	4.6857	16.5800 
794.321	-0.0474	0.0269	0.8984	3.0103	6.3940	4.3506	16.5900 
794.339	-0.0410	-0.0640	0.8130	2.9333	6.5808	4.2242	16.5800 
794.361	-0.0200	-0.0327	0.8120	2.8674	6.8445	3.9166	16.5800 
794.382	0.0117	0.0464	0.8076	2.8894	7.1466	3.4003	16.6000 
794.382	0.0142	0.0771	0.8794	2.9553	7.4432	2.9498	16.5800 
794.403	0.0044	0.0952	0.8799	3.0103	7.6685	2.6202	16.5900 
794.515	-0.0322	0.0444	0.8799	3.0212	7.8223	2.4664	16.6000 
794.532	-0.0308	0.0420	0.8823	2.9883	7.9816	2.3236	16.5800 
794.532	-0.0112	0.1226	0.9331	2.9773	8.1793	2.1368	16.5900 
794.532	-0.0024	0.1807	0.9780	2.9828	8.3716	1.9885	16.6000 
794.532	-0.0347	0.1240	1.0439	2.9718	8.4869	2.0929	16.5900 
794.532	-0.0576	0.0635	1.0259	2.9059	8.5638	2.3016	16.5800 
794.559	-0.0835	0.0806	1.0933	2.8729	8.7067	2.5323	16.5800 
794.578	-0.0493	0.1177	1.0972	2.9169	8.7836	2.9333	16.5900 
794.599	0.0503	0.1748	1.0771	3.0487	8.7231	3.5376	16.6000 
794.613	0.0737	0.1899	1.1128	3.2190	8.6517	4.1199	16.6000 
794.729	0.0151	0.1045	1.1499	3.4442	8.5583	4.6198	16.6000 
794.758	-0.2031	-0.0894	1.4292	3.7299	8.7177	5.1910	16.6000 
794.758	-0.1699	0.1909	1.2129	4.0045	8.8715	5.2295	16.6000 
794.758	-0.1426	0.4312	1.2246	4.3341	9.1406	5.1086	16.6100 
794.758	-0.0977	0.1431	0.8472	4.5593	9.1241	5.8173	16.6000 
794.758	-0.1929	-0.3398	0.8184	4.4604	9.1241	6.7291	16.5800 
794.758	-0.3481	-0.3472	1.0430	4.2847	9.7559	6.2402	16.6100 
794.778	-0.3940	0.0620	1.2715	4.1968	10.4315	5.2405	16.5900 
794.798	-0.2646	0.4102	1.3179	4.3066	10.6512	4.9823	16.6000 
794.812	-0.2153	0.0796	1.2319	4.3835	10.2008	6.0974	16.6000 
794.837	-0.0615	-0.1182	0.9297	4.1693	9.6185	7.2400	16.5800 
794.947	-0.0708	0.0537	0.9434	3.9276	9.4977	7.5806	16.6100 
794.966	-0.0854	0.1890	0.8589	3.8947	9.4427	7.5311	16.5900 
794.966	-0.1230	0.0332	0.8184	3.8727	9.2780	7.8003	16.6200 
794.967	-0.1572	-0.0376	0.7837	3.7354	9.1351	7.8882	16.6000 
794.967	-0.1294	0.1128	0.8462	3.6475	9.1187	7.5970	16.5700 
794.967	-0.1079	0.1953	0.8604	3.6749	8.9923	7.3883	16.6000 
794.967	-0.1030	0.1060	0.8574	3.6035	8.7451	7.4817	16.6000 
794.983	-0.0947	0.0669	0.8208	3.3453	8.4979	7.4927	16.5900 
794.998	-0.0933	0.1167	0.8257	3.0652	8.3386	7.2675	16.6000 
795.093	-0.1572	0.1455	0.9336	2.8455	8.3386	6.9543	16.6000 
795.119	-0.1792	0.1533	0.9482	2.6202	8.3276	6.6907	16.6100 
795.119	-0.1670	0.1855	0.9614	2.4225	8.2288	6.5259	16.6200 
795.119	-0.1353	0.1895	1.0186	2.2687	7.9980	6.6028	16.6100 
795.119	-0.1333	0.1426	1.0664	2.0819	7.6410	6.9489	16.6000 
795.137	-0.1113	0.0591	1.0923	1.8842	7.1686	7.3773	16.6100 
795.137	-0.0952	0.0488	1.0791	1.7578	6.6852	7.6410	16.6000 
795.157	-0.0869	0.2139	1.0977	1.7688	6.3171	7.6355	16.6200 
795.176	-0.0576	0.2188	1.2393	1.8567	5.9875	7.9541	16.6400 
795.196	0.0215	-0.0229	1.3604	1.8787	5.4382	8.9154	16.6100 
795.308	0.1294	-0.0200	1.1313	1.8622	4.6472	9.7668	16.6200 
795.336	0.2090	0.1113	1.1641	1.8896	4.2242	10.2448	16.6200 
795.336	0.2769	0.0679	1.1475	1.8622	3.8232	10.9589	16.6300 
795.336	0.2319	-0.2700	1.0884	1.6095	3.4497	12.0026	16.6000 
795.336	0.1138	-0.3604	1.1563	1.2964	3.3838	12.5079	16.6200 
795.336	-0.0591	-0.1167	1.3486	1.1041	3.8287	11.7664	16.6100 
795.355	-0.0845	0.0684	1.3271	1.0382	4.2407	10.8160	16.6300 
795.375	-0.0020	0.0889	1.0190	0.9943	4.3781	10.4260	16.6100 
795.395	0.0298	-0.0264	0.8823	0.9064	4.4934	10.4425	16.6100 
795.409	0.0620	-0.0698	0.7090	0.8020	4.7186	10.4260	16.6300 
795.531	0.0278	-0.0342	0.7588	0.7526	5.1416	10.0690	16.6400 
795.550	-0.0015	0.0742	0.7651	0.7745	5.5975	9.4208	16.6000 
795.550	0.0000	0.0674	0.8081	0.7690	5.9930	8.8495	16.6200 
795.550	-0.0054	-0.0063	0.7871	0.6482	6.2787	8.4595	16.6000 
795.550	-0.0273	-0.0283	0.8779	0.4230	6.6193	8.1134	16.5900 
795.550	-0.0317	0.0010	0.9482	0.1593	6.9324	7.7783	16.6000 
795.550	-0.0142	0.0234	0.9819	-0.0824	7.1246	7.5366	16.6000 
795.573	0.0220	0.0449	1.0522	-0.3021	7.2235	7.4872	16.6100 
795.593	0.0215	0.0005	1.0894	-0.5054	7.2400	7.6904	16.6100 
795.612	-0.0137	-0.0713	1.1323	-0.6921	7.2510	8.0420	16.5900 
795.627	-0.0459	-0.0654	1.1338	-0.8075	7.3004	8.2892	16.6000 
795.749	-0.0063	0.0830	1.1680	-0.8020	7.3773	8.3771	16.6000 
795.749	0.1030	0.2163	1.1128	-0.6702	7.3718	8.4650	16.6100 
795.765	0.1929	0.1333	1.0928	-0.4999	7.3004	8.8165	16.6100 
795.765	0.1455	-0.0034	1.0127	-0.3735	7.2345	9.1956	16.6200 
795.765	-0.1045	-0.0767	1.2085	-0.2087	7.5256	9.0143	16.6000 
795.765	-0.2539	-0.0220	1.4131	0.0549	8.0475	8.3661	16.6000 
795.765	-0.1968	0.2676	1.1826	0.4285	8.2727	7.6685	16.6000 
795.791	-0.2422	0.1270	1.1050	0.8295	8.3441	7.6080	16.6100 
795.812	-0.1890	-0.1172	0.7314	0.9283	8.2782	7.9266	16.5900 
795.826	-0.2871	-0.2393	0.9116	0.7855	8.5968	7.8992	16.5900 
795.850	-0.3882	-0.2437	1.0972	0.5988	8.9813	7.5037	16.5900 
795.963	-0.3931	-0.1299	1.2197	0.4504	9.2505	7.0697	16.5900 
795.981	-0.2441	0.1299	1.2524	0.3625	9.1461	6.9269	16.5700 
795.981	-0.1592	0.1025	1.1758	0.3351	8.7726	7.4542	16.5900 
795.981	-0.0630	-0.0181	0.9878	0.2362	8.1189	8.5034	16.6000 
795.981	-0.0195	-0.0654	0.8403	0.0494	7.6300	9.3274	16.5800 
795.981	-0.0244	0.0278	0.7939	-0.0714	7.3444	9.6130	16.5900 
795.981	-0.0659	0.0947	0.7939	-0.1263	7.1521	9.7064	16.5800 
795.999	-0.0947	0.0308	0.7886	-0.2032	6.9159	9.8657	16.5900 
796.031	-0.0977	0.0469	0.7920	-0.3076	6.6852	9.8602	16.5800 
796.045	-0.0815	0.1475	0.8184	-0.3241	6.4764	9.7174	16.5800 
796.064	-0.0596	0.1797	0.9375	-0.3735	6.2567	9.8163	16.5900 
796.083	-0.0605	0.0562	0.9468	-0.5713	5.9491	10.1898	16.5700 
796.176	-0.0708	0.0439	0.9150	-0.7910	5.7074	10.3217	16.5700 
796.208	-0.0874	0.1436	0.9302	-0.8734	5.5865	10.1459	16.5800 
796.208	-0.1333	0.1177	0.9712	-0.9174	5.4547	10.1074	16.5900 
796.208	-0.1235	0.0635	0.9932	-1.0492	5.2679	10.1898	16.5700 
796.209	-0.1274	0.0645	1.1567	-1.2140	5.0922	10.2228	16.5900 
796.209	-0.0737	0.1387	1.1543	-1.3074	4.7626	10.2118	16.6000 
796.232	-0.0371	0.1128	1.1685	-1.3184	4.2957	10.4150	16.5900 
796.247	-0.0439	0.0205	1.1450	-1.3293	3.8123	10.7501	16.5800 
796.270	-0.0210	-0.0391	1.3682	-1.3293	3.5266	10.9973	16.5800 
796.270	0.0254	-0.0649	1.5161	-1.2634	3.2355	11.2720	16.5700 
796.376	0.1650	-0.0327	1.3101	-1.0986	2.7136	11.6400	16.5700 
796.406	0.2080	-0.0313	1.2827	-0.9668	2.3236	12.1454	16.5600 
796.406	0.3008	-0.1372	1.0605	-0.9668	1.9281	12.9089	16.5700 
796.406	0.2397	-0.3320	0.9834	-1.1206	1.6754	13.6780	16.5700 
796.406	0.1270	-0.3179	1.0864	-1.2854	1.7743	13.7549	16.5800 
796.407	-0.0054	-0.2158	1.2622	-1.3239	2.2357	12.9474	16.5800 
796.428	-0.0645	-0.1143	1.1328	-1.2360	2.5708	11.9421	16.5700 
796.541	-0.0317	-0.0039	1.0562	-1.1096	2.8619	11.0138	16.5700 
796.565	0.0498	0.0317	0.8599	-0.9503	3.0377	10.4645	16.5600 
796.565	0.0791	-0.0898	0.7559	-0.8899	3.1696	10.4150	16.5600 
796.565	0.0732	-0.1567	0.7085	-0.9174	3.3948	10.3821	16.5600 
796.565	0.0439	-0.0962	0.7715	-0.8789	3.8177	9.8438	16.5600 
796.565	0.0186	-0.0112	0.8398	-0.7471	4.3121	8.9868	16.5500 
796.565	0.0396	0.0200	0.8701	-0.5823	4.7131	8.2013	16.5400 
796.586	0.0703	0.0225	0.8833	-0.4779	4.9658	7.7234	16.5400 
796.608	0.0542	-0.0356	0.9546	-0.4449	5.1691	7.5311	16.5800 
796.627	0.0537	-0.0576	0.9712	-0.4504	5.3284	7.3718	16.5800 
796.646	0.0630	0.0322	1.0225	-0.3955	5.5042	6.9983	16.5600 
796.749	0.0791	0.1328	1.0459	-0.2032	5.6360	6.6412	16.5500 
796.766	0.0718	0.0894	1.0400	0.0439	5.6635	6.6083	16.5500 
796.766	0.0366	0.0049	1.0605	0.2527	5.6689	6.8225	16.5700 
796.766	-0.0142	-0.0088	1.1294	0.4340	5.7898	6.9818	16.5600 
796.766	0.0215	0.0942	1.1421	0.6427	5.9766	7.0203	16.5500 
796.766	0.0933	0.2290	1.1211	0.9119	6.1523	7.0313	16.5600 
796.766	0.1582	0.2329	1.0918	1.2195	6.2292	7.3334	16.5600 
796.785	0.0249	-0.0684	1.0547	1.4886	6.3446	7.9266	16.5600 
796.805	-0.1460	-0.1777	1.2310	1.7688	6.8060	8.1079	16.5700 
796.824	-0.2461	0.1069	1.3892	2.1259	7.3828	7.7344	16.5600 
796.844	-0.1470	0.3564	1.0850	2.6697	7.5421	7.5421	16.5700 
796.864	-0.1973	0.0386	0.8906	3.1036	7.6190	8.1793	16.5700 
796.963	-0.2363	-0.1919	0.7998	3.1146	7.8552	8.6023	16.5700 
796.985	-0.3564	-0.1890	1.1401	2.9553	8.5089	8.2672	16.5800 
796.985	-0.3340	-0.0229	1.2637	2.7960	8.9154	7.7893	16.5800 
796.985	-0.2119	0.0815	1.2764	2.7191	8.8220	7.8168	16.5700 
796.985	-0.1333	0.0293	1.1069	2.7026	8.3221	8.2562	16.5800 
796.985	-0.0576	0.0762	1.0259	2.6532	7.9156	8.6243	16.5900 
797.005	-0.0205	0.1074	0.9165	2.6147	7.4707	8.9758	16.5700 
797.026	-0.0122	0.0806	0.7920	2.5104	7.0367	9.2999	16.5700 
797.044	0.0073	0.0947	0.7471	2.3895	6.6083	9.4592	16.5800 
797.065	-0.0244	0.1050	0.7476	2.3016	6.2128	9.4427	16.5800 
797.178	-0.0356	0.0811	0.7739	2.1753	5.8722	9.2999	16.5800 
797.195	-0.0522	0.1230	0.8286	2.0105	5.6085	8.9703	16.5800 
797.195	-0.0845	0.0835	0.9331	1.8018	5.4272	8.6627	16.5800 
797.195	-0.0928	0.0322	0.9214	1.5216	5.2130	8.3771	16.5600 
797.195	-0.0933	0.0669	0.9736	1.2799	5.0757	8.0365	16.5700 
797.195	-0.0684	0.0981	0.9653	1.1096	4.8944	7.7289	16.5700 
797.216	-0.0669	0.1089	0.9595	0.9613	4.7131	7.4377	16.5800 
797.243	-0.0679	0.1519	1.0249	0.8240	4.5703	7.1576	16.5700 
797.262	-0.0762	0.1494	1.0625	0.7031	4.3671	7.0093	16.5900 
797.275	-0.0781	0.0737	1.1323	0.5658	4.0869	7.0422	16.5800 
797.402	-0.0757	0.0508	1.1006	0.4504	3.7408	7.0862	16.5800 
797.403	-0.0752	0.0659	1.0986	0.3900	3.4497	6.9873	16.5700 
797.413	-0.0591	0.1284	1.0854	0.3790	3.2135	6.8005	16.5700 
797.413	-0.0034	0.1670	1.1582	0.4065	2.9773	6.7181	16.5900 
797.413	0.0898	0.1318	1.2891	0.4175	2.6257	6.8939	16.5800 
797.415	0.1655	0.0166	1.2671	0.4340	2.0544	7.3169	16.5900 
797.415	0.1675	-0.1162	1.2754	0.4175	1.4886	7.7838	16.5700 
797.433	0.2207	-0.0991	1.1421	0.3516	1.1151	7.9596	16.5800 
797.461	0.2349	-0.0659	1.0884	0.2637	0.8569	7.9706	16.5900 
797.474	0.1934	-0.2529	1.0430	-0.0055	0.7141	8.1079	16.5700 
797.500	0.1240	-0.3193	1.1025	-0.3790	0.6976	8.1409	16.5900 
797.617	-0.0605	-0.2324	1.2603	-0.6702	1.0657	7.4158	16.5800 
797.631	-0.0591	-0.0669	1.1836	-0.7910	1.4117	6.3666	16.5700 
797.631	0.0000	0.0864	0.9312	-0.7526	1.6425	5.5536	16.5800 
797.631	0.0498	0.0552	0.8164	-0.7251	1.7853	5.1855	16.5800 
797.631	0.0356	-0.1597	0.7378	-0.9174	2.0380	5.2899	16.5700 
797.631	0.0161	-0.2026	0.7847	-1.2030	2.4115	5.2789	16.5800 
797.631	-0.0068	-0.1206	0.8379	-1.3843	2.9114	4.7791	16.5800 
797.649	-0.0127	-0.0430	0.9238	-1.4557	3.3893	4.2023	16.5900 
797.678	0.0298	-0.0083	0.9102	-1.5271	3.6914	3.8507	16.5700 
797.694	0.0518	-0.0488	0.9312	-1.6370	3.8507	3.8123	16.5700 
797.717	0.0801	-0.0620	0.9180	-1.8402	3.9441	3.9001	16.5700 
797.817	0.0859	-0.0474	1.0278	-2.0490	4.1254	3.9606	16.5700 
797.830	0.1099	-0.0039	1.0483	-2.1808	4.2352	4.0155	16.6000 
797.830	0.1294	0.0332	1.0244	-2.2192	4.2792	4.0979	16.5700 
797.831	0.1162	0.0366	0.9927	-2.2192	4.3066	4.1858	16.5600 
797.831	0.0664	0.0044	1.0278	-2.2302	4.4055	4.3121	16.5700 
797.831	0.0205	-0.0435	1.0547	-2.2522	4.5648	4.5209	16.5800 
797.859	0.0122	-0.0244	1.0464	-2.2412	4.7626	4.7406	16.5700 
797.879	0.0366	0.0225	1.0845	-2.1753	4.9823	5.0153	16.5900 
797.893	0.1016	0.0864	1.0571	-2.0544	5.1306	5.3613	16.5700 
797.919	0.1694	0.1328	1.0063	-1.9116	5.2185	5.7404	16.5900 
798.016	0.0884	-0.0352	0.9849	-1.7578	5.3448	6.2292	16.6000 
798.037	-0.0176	-0.0957	0.9629	-1.5875	5.5646	6.5094	16.5900 
798.037	-0.2227	-0.1519	1.2959	-1.2524	6.0480	6.6248	16.5700 
798.037	-0.2505	-0.1377	1.4355	-0.7690	6.4160	6.8005	16.5800 
798.037	-0.1514	0.0923	1.3345	-0.1593	6.5094	6.9818	16.5700 
798.037	-0.1733	0.1445	1.3018	0.3076	6.6357	7.2894	16.5800 
798.047	-0.1172	0.0386	0.8833	0.4449	6.6632	7.6520	16.5700 
798.063	-0.2310	-0.1689	0.8496	0.3131	7.0532	7.8278	16.5800 
798.080	-0.4224	-0.1909	1.1274	0.1044	7.8442	7.5531	16.5800 
798.099	-0.3984	-0.0781	1.2422	-0.0604	8.3716	7.3389	16.5700 
798.122	-0.1665	0.0337	1.0708	-0.2307	8.2837	7.5311	16.5800 
798.136	-0.0698	-0.0195	0.9922	-0.4230	7.8772	8.1189	16.5700 
798.232	0.0059	-0.0654	0.8613	-0.6812	7.3718	8.6737	16.5700 
798.248	0.0332	0.0034	0.8423	-0.9503	6.9324	8.8824	16.5700 
798.248	0.0068	0.0391	0.8320	-1.1646	6.5973	8.8824	16.5700 
798.248	-0.0132	0.0762	0.8389	-1.3293	6.3556	8.8165	16.5700 
798.248	-0.0830	-0.0469	0.8750	-1.5216	6.1469	8.8055	16.5700 
798.262	-0.1460	-0.0815	0.9380	-1.7468	5.9875	8.6353	16.5800 
798.283	-0.1289	0.0264	1.0049	-1.9336	5.8282	8.2233	16.5600 
798.300	-0.0869	0.0635	1.0435	-2.0874	5.6250	7.8772	16.5700 
798.316	-0.0454	0.0327	0.9995	-2.2687	5.3558	7.8497	16.5700 
798.339	-0.0405	0.0205	0.9487	-2.4500	5.0977	7.8772	16.5700 
798.355	-0.0249	0.1064	0.9312	-2.5983	4.9438	7.6904	16.5800 
798.456	-0.0801	0.0889	1.0078	-2.7740	4.7791	7.4982	16.5700 
798.481	-0.0923	0.0967	0.9448	-3.0103	4.6198	7.4377	16.5700 
798.481	-0.0347	0.0815	0.8813	-3.2629	4.3726	7.5751	16.5600 
798.481	-0.0493	-0.0142	0.9531	-3.5486	4.1309	7.8607	16.5600 
798.481	-0.0767	-0.0464	0.9150	-3.7958	3.8727	7.9596	16.5700 
798.481	-0.0903	-0.0322	0.9541	-3.9056	3.6969	7.7014	16.5700 
798.496	-0.1270	0.0371	1.0190	-3.9001	3.6090	7.2510	16.5600 
798.516	-0.1367	0.0718	1.0303	-3.8562	3.4772	6.9269	16.5700 
798.535	-0.0635	0.1089	1.0400	-3.9056	3.2410	6.8445	16.5400 
798.553	0.0112	0.0815	1.0039	-4.0594	2.8345	7.0313	16.5400 
798.573	0.0244	-0.0762	1.1265	-4.2352	2.4884	7.2455	16.5600 
798.652	0.0068	-0.1714	1.3276	-4.3011	2.2137	7.2729	16.5600 
798.672	0.0469	-0.1631	1.4556	-4.2462	1.8402	7.1027	16.5500 
798.672	0.0562	-0.1177	1.4897	-4.1144	1.4777	6.8829	16.5700 
798.672	0.2109	-0.1099	1.3164	-4.1089	1.0217	7.0203	16.5700 
798.694	0.2446	-0.2119	1.1689	-4.2352	0.5768	7.6025	16.5800 
798.695	0.2114	-0.3794	1.0137	-4.4440	0.3021	8.2343	16.5400 
798.713	0.1812	-0.4043	1.0283	-4.6857	0.3241	8.4705	16.5600 
798.739	0.0469	-0.3447	1.1504	-4.8175	0.6152	8.0365	16.5600 
798.761	0.0288	-0.1934	1.1245	-4.7681	0.9283	7.1521	16.5600 
798.860	-0.0186	-0.1797	1.0308	-4.6912	1.1316	6.4435	16.5700 
798.881	-0.0171	-0.2461	0.9243	-4.7461	1.2689	5.9875	16.5700 
798.881	-0.0010	-0.2300	0.8740	-4.8505	1.4392	5.5756	16.5700 
798.881	0.0454	-0.1465	0.8726	-4.8944	1.5875	5.1965	16.5600 
798.881	0.0957	-0.1792	0.8564	-4.9933	1.6425	5.1746	16.5600 
798.881	0.0947	-0.2144	0.8687	-5.1581	1.6754	5.2844	16.5600 
798.903	0.0801	-0.1865	0.9302	-5.3448	1.7578	5.2515	16.5600 
798.918	0.0605	-0.1895	0.9702	-5.5316	1.8402	5.2570	16.5800 
798.933	0.0049	-0.2974	0.9536	-5.7513	1.9116	5.5646	16.5800 
798.951	-0.0225	-0.3594	0.9453	-6.0260	2.0270	6.0919	16.5800 
798.971	-0.0625	-0.4131	0.9663	-6.2677	2.1863	6.6522	16.5900 
799.078	-0.0591	-0.3804	0.9893	-6.3885	2.2961	7.2400	16.5700 
799.096	0.0098	-0.2822	1.1191	-6.3721	2.2961	7.8827	16.5900 
799.097	0.1196	-0.1704	1.1636	-6.2402	2.0929	8.5144	16.5700 
799.097	0.1885	-0.0737	1.0894	-5.9875	1.7688	9.0967	16.5800 
799.097	0.1021	-0.1172	1.0718	-5.7074	1.5930	9.6405	16.5600 
799.097	0.0039	-0.1147	1.0415	-5.4712	1.6754	9.9701	16.5800 
799.112	0.0039	-0.0293	1.0254	-5.2130	1.8457	10.0800	16.5700 
799.133	0.0396	0.0166	0.9434	-4.9438	1.9446	10.2942	16.5700 
799.213	0.0273	-0.0596	0.9063	-4.7626	1.9171	10.7172	16.5800 
799.230	0.0376	-0.0366	0.8760	-4.6857	1.8732	11.0358	16.5700 
799.230	0.0142	-0.0254	0.9531	-4.6198	1.8677	11.2225	16.5600 
799.230	-0.0298	-0.1270	0.9878	-4.6307	1.8677	11.5027	16.5900 
799.230	-0.0239	-0.1069	1.0171	-4.6967	1.8787	11.7334	16.5700 
799.250	0.0059	-0.0166	1.1191	-4.7351	1.9226	11.8982	16.5600 
799.269	0.0303	-0.0469	1.0845	-4.7845	1.8732	12.2388	16.5800 
799.289	0.0386	-0.0933	1.0669	-4.8889	1.8402	12.6123	16.5900 
799.313	0.0361	-0.0234	1.0640	-4.9768	1.8677	12.7496	16.5900 
799.331	0.0112	-0.0215	1.0381	-5.0317	1.9556	12.8485	16.5900 
799.428	-0.0127	-0.0884	1.0063	-5.1416	2.0325	13.0188	16.5900 
799.451	-0.0410	-0.1050	1.0088	-5.3009	2.1918	13.0847	16.5900 
799.452	-0.0552	-0.0713	1.0317	-5.4218	2.3676	13.0902	16.5900 
799.452	-0.0405	-0.0825	1.0254	-5.5481	2.4884	13.2275	16.5900 
799.452	-0.0054	-0.1016	1.0190	-5.6744	2.5818	13.4418	16.5900 
799.452	0.0029	-0.0723	1.0474	-5.7513	2.6971	13.5736	16.6000 
799.470	0.0112	-0.0342	1.0620	-5.7898	2.8015	13.6725	16.5900 
799.490	0.0073	-0.0674	1.0581	-5.8282	2.8949	13.8428	16.6100 
799.507	0.0020	-0.0811	1.0337	-5.8832	2.9883	13.9581	16.6000 
799.528	-0.0020	-0.0464	1.0317	-5.9052	3.1091	13.9581	16.6000 
799.550	-0.0205	-0.0630	1.0259	-5.9106	3.2190	14.0131	16.6200 
799.639	-0.0366	-0.0986	1.0381	-5.9436	3.3398	14.0955	16.5900 
799.669	-0.0283	-0.0610	1.0317	-5.9711	3.4442	14.0955	16.6000 
799.669	-0.0254	-0.0479	1.0562	-5.9656	3.5376	14.1174	16.6100 
799.669	-0.0044	-0.0820	1.0186	-5.9601	3.5651	14.2548	16.6000 
799.669	-0.0059	-0.0938	1.0220	-5.9711	3.6145	14.3536	16.5900 
799.688	-0.0146	-0.0688	1.0581	-5.9491	3.6969	14.3481	16.6000 
799.688	-0.0156	-0.0693	1.0430	-5.9161	3.7463	14.3591	16.6100 
799.707	-0.0059	-0.0547	1.0371	-5.8832	3.7793	14.3646	16.6300 
799.726	0.0083	-0.0376	1.0322	-5.8447	3.7903	14.3756	16.6200 
799.746	-0.0024	-0.0864	1.0308	-5.8173	3.7903	14.4525	16.6300 
799.849	-0.0103	-0.0889	1.0234	-5.8063	3.8068	14.4690	16.6400 
799.867	-0.0078	-0.0488	1.0596	-5.7788	3.8507	14.3921	16.6200 
799.867	-0.0029	-0.0635	1.0537	-5.7458	3.8617	14.3921	16.6200 
799.867	0.0127	-0.0811	1.0171	-5.7294	3.8397	14.4196	16.6300 
799.867	0.0146	-0.0547	1.0205	-5.6909	3.8452	14.3427	16.6300 
799.884	0.0049	-0.0391	1.0225	-5.6415	3.8617	14.2328	16.6300 
799.897	-0.0093	-0.0615	1.0264	-5.6085	3.8892	14.1833	16.6100 
799.926	0.0015	-0.0713	1.0273	-5.6030	3.9056	14.1504	16.6200 
799.926	0.0059	-0.0679	1.0527	-5.5920	3.9111	14.1064	16.6200 
799.945	0.0142	-0.0605	1.0435	-5.5811	3.8837	14.0735	16.6400 
799.968	0.0132	-0.0645	1.0420	-5.5701	3.8452	14.0405	16.6300 
800.082	0.0142	-0.0596	1.0273	-5.5536	3.8123	13.9966	16.6400 
800.101	0.0063	-0.0605	1.0264	-5.5316	3.7903	13.9471	16.6500 
800.101	0.0044	-0.0635	1.0381	-5.5096	3.7738	13.9252	16.6400 
800.101	0.0034	-0.0718	1.0342	-5.4932	3.7573	13.9362	16.6500 
800.101	0.0181	-0.0659	1.0474	-5.4877	3.7354	13.9471	16.6500 
800.101	0.0273	-0.0464	1.0303	-5.4767	3.6969	13.9362	16.6500 
800.125	0.0269	-0.0459	1.0420	-5.4657	3.6694	13.9252	16.6400 
800.144	0.0264	-0.0591	1.0195	-5.4602	3.6365	13.9526	16.6500 
800.164	0.0059	-0.0859	1.0322	-5.4767	3.6365	13.9746	16.6500 
800.174	0.0049	-0.0679	1.0410	-5.4877	3.6475	13.9581	16.6500 
800.192	0.0205	-0.0347	1.0239	-5.4712	3.6420	13.9471	16.6500 
800.286	0.0215	-0.0522	1.0381	-5.4602	3.6090	13.9966	16.6500 
800.306	0.0308	-0.0625	1.0107	-5.4712	3.5651	14.0680	16.6500 
800.306	0.0151	-0.0767	1.0356	-5.4932	3.5541	14.1010	16.6600 
800.306	0.0132	-0.0645	1.0283	-5.5096	3.5431	14.0955	16.6600 
800.307	0.0073	-0.0552	1.0332	-5.5042	3.5376	14.1010	16.6500 
800.307	0.0176	-0.0615	1.0425	-5.4987	3.5046	14.1614	16.6500 
800.323	0.0317	-0.0620	1.0249	-5.5042	3.4607	14.2328	16.6600 
800.346	0.0332	-0.0547	1.0557	-5.5042	3.4497	14.2877	16.6700 
800.367	0.0430	-0.0439	1.0264	-5.4932	3.4058	14.3481	16.6600 
800.382	0.0322	-0.0630	1.0352	-5.4932	3.4003	14.4086	16.6500 
800.497	0.0142	-0.0684	1.0415	-5.4932	3.4003	14.4196	16.6700 
800.510	0.0103	-0.0601	1.0386	-5.4877	3.4003	14.3976	16.6600 
800.511	0.0083	-0.0659	1.0459	-5.4602	3.3838	14.4250	16.6700 
800.511	0.0132	-0.0669	1.0234	-5.4327	3.3563	14.4855	16.6700 
800.511	0.0259	-0.0483	1.0371	-5.3998	3.3508	14.5404	16.6500 
800.511	0.0259	-0.0459	1.0317	-5.3668	3.3344	14.6228	16.6700 
800.528	0.0244	-0.0649	1.0317	-5.3394	3.3234	14.7327	16.6800 
800.542	0.0186	-0.0586	1.0337	-5.3174	3.3234	14.7821	16.6700 
800.654	0.0137	-0.0420	1.0391	-5.2734	3.3398	14.8041	16.6600 
800.660	0.0112	-0.0527	1.0376	-5.2350	3.3398	14.8590	16.6700 
800.660	0.0122	-0.0654	1.0361	-5.2020	3.3398	14.9249	16.6700 
800.660	0.0186	-0.0483	1.0269	-5.1636	3.3344	14.9524	16.6600 
800.660	0.0215	-0.0352	1.0381	-5.1141	3.3234	14.9799	16.6700 
800.660	0.0264	-0.0483	1.0293	-5.0757	3.2959	15.0513	16.6700 
800.682	0.0166	-0.0645	1.0313	-5.0482	3.2794	15.1282	16.6800 
800.701	0.0107	-0.0430	1.0420	-5.0098	3.2794	15.1337	16.6700 
800.721	0.0176	-0.0303	1.0337	-4.9658	3.2739	15.1501	16.6800 
800.741	0.0225	-0.0566	1.0293	-4.9438	3.2410	15.2380	16.6900 
800.762	0.0200	-0.0596	1.0181	-4.9329	3.2245	15.3040	16.6900 
800.880	0.0176	-0.0273	1.0425	-4.9219	3.2355	15.2930	16.7000 
800.897	0.0200	-0.0400	1.0298	-4.9054	3.2190	15.3424	16.6800 
800.897	0.0190	-0.0806	1.0317	-4.9109	3.1970	15.4633	16.6900 
800.897	0.0127	-0.0649	1.0293	-4.9219	3.1915	15.4962	16.6900 
800.897	0.0166	-0.0190	1.0410	-4.8999	3.2025	15.4413	16.7000 
800.897	0.0259	-0.0386	1.0371	-4.8724	3.1805	15.4797	16.6900 
800.915	0.0293	-0.0732	1.0186	-4.8724	3.1311	15.5951	16.7000 
800.933	0.0229	-0.0342	1.0449	-4.8779	3.1311	15.6006	16.7100 
800.959	0.0186	-0.0234	1.0547	-4.8615	3.1366	15.5676	16.7200 
800.977	0.0210	-0.0693	1.0308	-4.8615	3.1036	15.6445	16.7200 
800.999	0.0200	-0.0728	1.0220	-4.8889	3.0927	15.6995	16.7000 
801.104	0.0112	-0.0430	1.0459	-4.8944	3.1036	15.6665	16.7100 
801.118	0.0107	-0.0493	1.0308	-4.8944	3.0927	15.6665	16.7100 
801.118	0.0215	-0.0630	1.0303	-4.8999	3.0762	15.6995	16.7300 
801.118	0.0288	-0.0474	1.0278	-4.9054	3.0597	15.7214	16.7200 
801.118	0.0259	-0.0425	1.0342	-4.9054	3.0542	15.7324	16.7100 
801.118	0.0225	-0.0547	1.0361	-4.9164	3.0432	15.7599	16.7200 
801.132	0.0186	-0.0620	1.0317	-4.9274	3.0377	15.7928	16.7200 
801.149	0.0166	-0.0513	1.0396	-4.9438	3.0432	15.7819	16.7300 
801.255	0.0127	-0.0542	1.0410	-4.9493	3.0432	15.7983	16.7200 
801.278	0.0132	-0.0723	1.0327	-4.9658	3.0322	15.8423	16.7300 
801.278	0.0181	-0.0552	1.0308	-4.9713	3.0322	15.8423	16.7200 
801.278	0.0190	-0.0361	1.0405	-4.9548	3.0377	15.8368	16.7100 
801.279	0.0234	-0.0552	1.0273	-4.9548	3.0212	15.8972	16.7300 
801.279	0.0210	-0.0728	1.0371	-4.9713	3.0212	15.9357	16.7400 
801.279	0.0190	-0.0449	1.0371	-4.9768	3.0377	15.9137	16.7500 
801.299	0.0156	-0.0493	1.0376	-4.9658	3.0487	15.9247	16.7400 
801.323	0.0186	-0.0723	1.0278	-4.9768	3.0432	15.9906	16.7300 
801.336	0.0166	-0.0591	1.0278	-4.9878	3.0487	16.0071	16.7400 
801.358	0.0137	-0.0420	1.0430	-4.9878	3.0707	15.9961	16.7500 
801.465	0.0146	-0.0562	1.0298	-4.9823	3.0597	16.0455	16.7600 
801.483	0.0151	-0.0649	1.0361	-4.9823	3.0542	16.1060	16.7600 
801.484	0.0137	-0.0571	1.0322	-4.9878	3.0542	16.1444	16.7500 
801.484	0.0093	-0.0605	1.0425	-4.9878	3.0597	16.1664	16.7500 
801.484	0.0156	-0.0547	1.0342	-4.9823	3.0542	16.1938	16.7500 
801.484	0.0171	-0.0557	1.0361	-4.9713	3.0487	16.2323	16.7400 
801.501	0.0200	-0.0615	1.0352	-4.9603	3.0212	16.2762	16.7600 
801.516	0.0205	-0.0566	1.0361	-4.9493	3.0048	16.3202	16.7600 
801.536	0.0186	-0.0522	1.0317	-4.9274	2.9828	16.3586	16.7600 
801.556	0.0166	-0.0483	1.0332	-4.9164	2.9663	16.3916	16.7500 
801.578	0.0181	-0.0547	1.0278	-4.9164	2.9498	16.4410	16.7800 
801.680	0.0122	-0.0684	1.0366	-4.9274	2.9388	16.4960	16.7800 
801.696	0.0122	-0.0566	1.0322	-4.9329	2.9279	16.5125	16.7800 
801.696	0.0098	-0.0527	1.0337	-4.9274	2.9114	16.5234	16.7800 
801.696	0.0195	-0.0596	1.0308	-4.9329	2.8839	16.5564	16.7700 
801.696	0.0234	-0.0605	1.0303	-4.9438	2.8564	16.6003	16.7900 
801.696	0.0220	-0.0498	1.0396	-4.9493	2.8345	16.6168	16.8000 
801.714	0.0313	-0.0474	1.0386	-4.9493	2.8015	16.6443	16.8000 
801.734	0.0269	-0.0688	1.0327	-4.9603	2.7795	16.7047	16.7900 
801.754	0.0225	-0.0708	1.0391	-4.9713	2.7686	16.7322	16.7900 
801.775	0.0220	-0.0464	1.0356	-4.9658	2.7631	16.7212	16.8000 
801.793	0.0200	-0.0542	1.0459	-4.9548	2.7576	16.7432	16.8000 
801.870	0.0269	-0.0625	1.0254	-4.9548	2.7356	16.8036	16.8000 
801.882	0.0308	-0.0483	1.0327	-4.9548	2.7191	16.8365	16.8000 
801.882	0.0278	-0.0464	1.0493	-4.9438	2.7191	16.8860	16.7900 
801.882	0.0269	-0.0610	1.0332	-4.9438	2.7081	16.9574	16.7900 
801.901	0.0234	-0.0518	1.0342	-4.9493	2.7136	17.0068	16.8100 
801.915	0.0215	-0.0425	1.0405	-4.9438	2.7356	17.0398	16.8100 
801.937	0.0176	-0.0767	1.0303	-4.9438	2.7411	17.1387	16.8100 
801.952	0.0166	-0.0757	1.0303	-4.9548	2.7466	17.2266	16.8000 
801.974	0.0220	-0.0303	1.0361	-4.9438	2.7631	17.2430	16.8100 
801.992	0.0254	-0.0391	1.0425	-4.9274	2.7631	17.3035	16.8100 
802.076	0.0278	-0.0732	1.0239	-4.9329	2.7411	17.4463	16.8100 
802.093	0.0229	-0.0698	1.0356	-4.9493	2.7521	17.5067	16.8200 
802.093	0.0190	-0.0479	1.0342	-4.9329	2.7740	17.4902	16.8300 
802.093	0.0200	-0.0552	1.0415	-4.9164	2.7905	17.5067	16.8200 
802.093	0.0269	-0.0586	1.0273	-4.9109	2.7850	17.5397	16.8300 
802.114	0.0259	-0.0562	1.0371	-4.8999	2.7905	17.5452	16.8400 
802.133	0.0254	-0.0503	1.0293	-4.8889	2.7905	17.5397	16.8400 
802.153	0.0249	-0.0483	1.0361	-4.8834	2.8015	17.5287	16.8300 
802.173	0.0215	-0.0532	1.0361	-4.8834	2.8125	17.5232	16.8400 
802.278	0.0205	-0.0654	1.0322	-4.8944	2.8235	17.5287	16.8400 
802.312	0.0200	-0.0620	1.0293	-4.9164	2.8345	17.5067	16.8400 
802.312	0.0166	-0.0557	1.0356	-4.9219	2.8455	17.4573	16.8400 
802.312	0.0151	-0.0586	1.0332	-4.9384	2.8564	17.4188	16.8600 
802.312	0.0244	-0.0576	1.0483	-4.9658	2.8674	17.4078	16.8300 
802.312	0.0288	-0.0630	1.0298	-4.9933	2.8564	17.4298	16.8400 
802.313	0.0225	-0.0737	1.0396	-5.0208	2.8619	17.4463	16.8400 
802.333	0.0205	-0.0664	1.0356	-5.0427	2.8674	17.4353	16.8500 
802.350	0.0112	-0.0718	1.0444	-5.0537	2.8839	17.4298	16.8700 
802.371	0.0200	-0.0703	1.0293	-5.0592	2.8729	17.4298	16.8600 
802.468	0.0327	-0.0527	1.0249	-5.0537	2.8674	17.4243	16.8400 
802.480	0.0283	-0.0620	1.0376	-5.0537	2.8619	17.4408	16.8600 
802.480	0.0225	-0.0801	1.0366	-5.0702	2.8674	17.4683	16.8600 
802.480	0.0205	-0.0840	1.0449	-5.0922	2.8894	17.4628	16.8600 
802.480	0.0210	-0.0762	1.0342	-5.1031	2.9059	17.4408	16.8600