StartTime: 2018-11-18 09:26:32.427
Time(s)	ax(g)	ay(g)	az(g)	AngleX(deg)	AngleY(deg)	AngleZ(deg)	T(Â°) 
1208.278	0.0830	0.1636	1.0161	7.6685	-1.1261	-4.5209	16.8900 
1208.300	0.0806	0.1392	1.0088	7.6740	-1.1316	-4.4879	16.8900 
1208.319	0.0830	0.1846	1.0229	7.6849	-1.1096	-4.5099	16.8800 
1208.339	0.0854	0.1636	1.0195	7.6959	-1.1151	-4.4934	16.9100 
1208.360	0.0869	0.1582	1.0190	7.6959	-1.1206	-4.4604	16.8900 
1208.377	0.0825	0.1787	1.0234	7.7124	-1.1041	-4.4714	16.9000 
1208.496	0.0732	0.1563	1.0210	7.7234	-1.0986	-4.4604	16.9000 
1208.515	0.0723	0.1553	1.0107	7.7179	-1.0931	-4.4495	16.8900 
1208.517	0.0732	0.1875	1.0020	7.7454	-1.0767	-4.4934	16.9000 
1208.517	0.0664	0.1826	1.0068	7.7783	-1.0657	-4.5154	16.8900 
1208.517	0.0547	0.1797	1.0068	7.7948	-1.0492	-4.5593	16.9000 
1208.517	0.0503	0.2065	1.0210	7.8058	-1.0107	-4.6472	16.9000 
1208.517	0.0430	0.1846	1.0098	7.8058	-0.9888	-4.6912	16.8900 
1208.534	0.0430	0.1973	1.0146	7.7838	-0.9613	-4.7296	16.9100 
1208.558	0.0513	0.2275	1.0020	7.7563	-0.9338	-4.7736	16.9100 
1208.578	0.0532	0.2236	0.9902	7.7124	-0.9283	-4.7681	16.9200 
1208.594	0.0391	0.2324	0.9941	7.6300	-0.9064	-4.7900	16.9200 
1208.615	0.0347	0.2319	1.0010	7.5256	-0.8734	-4.8340	16.9200 
1208.724	0.0327	0.2207	1.0068	7.3993	-0.8240	-4.8669	16.9200 
1208.750	0.0391	0.2349	1.0415	7.2675	-0.7471	-4.8944	16.9200 
1208.750	0.0498	0.2231	1.0107	7.1411	-0.7031	-4.8944	16.9200 
1208.750	0.0532	0.2095	1.0137	6.9983	-0.6262	-4.8999	16.9200 
1208.751	0.0483	0.2036	1.0264	6.8719	-0.5273	-4.9054	16.9200 
1208.751	0.0396	0.1680	1.0068	6.7346	-0.4230	-4.8999	16.9200 
1208.768	0.0439	0.1816	0.9985	6.5973	-0.3076	-4.9164	16.9200 
1208.848	0.0493	0.1782	1.0239	6.4709	-0.1923	-4.9109	16.9200 
1208.866	0.0703	0.1924	1.0254	6.3501	-0.1099	-4.8560	16.9300 
1208.867	0.0952	0.1558	0.9844	6.2238	-0.0604	-4.7351	16.9200 
1208.867	0.0947	0.1621	0.9883	6.1084	0.0275	-4.6417	16.9100 
1208.867	0.0649	0.1240	1.0259	5.9821	0.1538	-4.5319	16.9300 
1208.883	0.0610	0.0923	1.0215	5.8282	0.2637	-4.4275	16.9200 
1208.917	0.1113	0.1855	1.0005	5.7184	0.3406	-4.4000	16.9200 
1208.935	0.1543	0.1543	0.9531	5.6525	0.2911	-4.2188	16.9300 
1208.936	0.1567	0.0845	1.0122	5.5426	0.2252	-4.0265	16.9300 
1208.955	0.1406	0.1602	1.1250	5.4437	0.2582	-4.0430	16.9300 
1208.974	0.1411	0.1816	1.1138	5.3723	0.2142	-4.0100	16.9500 
1208.995	0.1411	0.1377	1.0723	5.2734	0.1208	-3.8562	16.9500 
1209.014	0.1255	0.1665	1.0576	5.1691	0.1099	-3.7573	16.9300 
1209.119	0.1230	0.2056	1.0859	5.0977	0.1758	-3.6859	16.9300 
1209.141	0.1621	0.2212	1.0156	5.0702	0.2087	-3.4991	16.9200 
1209.141	0.1860	0.2100	0.9453	5.0427	0.2252	-3.2794	16.9200 
1209.141	0.1699	0.1714	0.9004	4.9933	0.2856	-3.1531	16.9300 
1209.141	0.1436	0.1528	0.9209	4.8889	0.4285	-3.1915	16.9400 
1209.141	0.0986	0.1597	0.9639	4.7571	0.5933	-3.3563	16.9300 
1209.171	0.1084	0.1523	1.0059	4.6252	0.6866	-3.4552	16.9400 
1209.270	0.1357	0.1245	0.9814	4.4769	0.6592	-3.4277	16.9400 
1209.280	0.1553	0.1353	0.9912	4.3561	0.6097	-3.4058	16.9400 
1209.280	0.1470	0.1431	1.0425	4.2682	0.5713	-3.3948	16.9100 
1209.280	0.1504	0.1611	1.0439	4.2407	0.5273	-3.3398	16.9200 
1209.280	0.1533	0.1289	1.0288	4.2242	0.4340	-3.1750	16.9400 
1209.280	0.1470	0.1016	1.0200	4.1913	0.3406	-2.9938	16.9300 
1209.309	0.1372	0.1514	1.0200	4.2023	0.3241	-2.8839	16.9600 
1209.335	0.1313	0.1621	1.0337	4.2627	0.3625	-2.7686	16.9300 
1209.335	0.1611	0.1665	1.0522	4.3231	0.3955	-2.5818	16.9500 
1209.355	0.1943	0.1763	1.0425	4.3835	0.4010	-2.3730	16.9400 
1209.369	0.1821	0.1187	1.0459	4.4495	0.4175	-2.1094	16.9400 
1209.390	0.1689	0.1260	1.0659	4.5044	0.4779	-1.8787	16.9500 
1209.477	0.1611	0.1436	1.0752	4.5868	0.5548	-1.6534	16.9400 
1209.508	0.1567	0.1279	1.0439	4.6857	0.5933	-1.3348	16.9300 
1209.508	0.1694	0.1865	1.0444	4.8175	0.6427	-1.0162	16.9400 
1209.508	0.1768	0.1792	1.0269	4.9878	0.6812	-0.6317	16.9400 
1209.509	0.1924	0.1699	1.0303	5.1636	0.7141	-0.2032	16.9500 
1209.528	0.1460	0.1318	1.0796	5.3723	0.7965	0.1703	16.9600 
1209.551	0.0981	0.1177	1.1377	5.6085	0.9448	0.3900	16.9500 
1209.573	0.0474	0.2207	1.1851	5.8887	1.1096	0.4175	16.9500 
1209.573	0.0435	0.2554	1.1357	6.1578	1.1755	0.4999	16.9500 
1209.593	0.0361	0.1587	1.0991	6.2787	1.1536	0.7196	16.9400 
1209.692	-0.0571	0.0361	1.0107	6.3446	1.0986	0.8130	16.9300 
1209.729	-0.1938	-0.0127	0.7837	6.4764	1.1975	0.4834	16.9500 
1209.729	-0.2456	0.0361	0.9854	6.6193	1.6315	0.1483	16.9500 
1209.730	-0.1304	0.1030	1.0728	6.6302	1.7908	0.1483	16.9500 
1209.730	-0.0371	0.0928	1.1016	6.5259	1.6754	0.3735	16.9400 
1209.730	0.0054	0.1162	1.1479	6.4380	1.5271	0.5548	16.9400 
1209.757	-0.0137	0.0781	1.0771	6.3721	1.3733	0.6427	16.9500 
1209.763	-0.0156	0.0903	1.0088	6.3226	1.2909	0.5493	16.9400 
1209.783	-0.0181	0.1528	0.9878	6.3226	1.2250	0.4010	16.9400 
1209.799	-0.0083	0.1021	0.9375	6.3391	1.0602	0.4340	16.9400 
1209.886	-0.0044	0.1875	0.9404	6.3666	0.9229	0.4175	16.9400 
1209.898	0.0190	0.2339	0.9141	6.4380	0.7690	0.5768	16.9400 
1209.898	0.0303	0.1235	0.8882	6.4325	0.5823	0.9503	16.9400 
1209.898	0.0430	0.1577	0.9038	6.3611	0.5603	1.0876	16.9400 
1209.898	0.0483	0.2388	0.9136	6.3336	0.6317	1.0162	16.9500 
1209.927	0.0483	0.1895	0.9209	6.2567	0.6812	1.0052	16.9500 
1209.948	0.0464	0.1572	0.9214	6.1139	0.7251	0.9064	16.9500 
1209.968	0.0327	0.2183	0.9253	6.0260	0.7910	0.5328	16.9500 
1209.968	0.0244	0.2734	0.9360	5.9930	0.8514	0.1373	16.9600 
1209.988	0.0181	0.1973	0.9668	5.9546	0.8459	0.0055	16.9400 
1210.098	0.0210	0.1792	0.9688	5.8832	0.7745	-0.0659	16.9500 
1210.128	0.0264	0.2529	0.9790	5.8447	0.6921	-0.2582	16.9200 
1210.128	0.0107	0.2197	1.0049	5.8502	0.5878	-0.3735	16.9500 
1210.128	-0.0122	0.1899	1.0386	5.8502	0.4889	-0.4669	16.9400 
1210.128	-0.0186	0.2573	1.0972	5.9052	0.4395	-0.6427	16.9300 
1210.128	-0.0229	0.2314	1.1582	5.9821	0.3571	-0.7141	16.9600 
1210.128	-0.0024	0.2759	1.1499	6.0480	0.2582	-0.7581	16.9500 
1210.150	0.0483	0.2817	1.1841	6.1249	0.1648	-0.7251	16.9300 
1210.166	0.0625	0.1699	1.2559	6.1853	0.0055	-0.4889	16.9300 
1210.188	0.0630	0.2773	1.1816	6.3171	-0.1703	-0.3351	16.9400 
1210.209	0.0542	0.2720	1.1675	6.5039	-0.3790	-0.1483	16.9400 
1210.309	0.1021	0.1094	1.0239	6.5753	-0.7031	0.3516	16.9400 
1210.342	0.1470	0.0396	0.9531	6.5973	-1.0327	0.9283	16.9400 
1210.342	0.1851	-0.0688	0.9951	6.5973	-1.2524	1.4996	16.9400 
1210.342	0.1714	-0.1777	1.1157	6.5204	-1.3788	1.9940	16.9500 
1210.342	0.1382	-0.0820	1.1895	6.4874	-1.3513	1.9281	16.9500 
1210.342	0.1299	0.0493	1.1816	6.5753	-1.2195	1.4996	16.9400 
1210.366	0.0640	-0.0557	1.1694	6.6467	-1.1151	1.2469	16.9300 
1210.384	0.0166	-0.0933	1.1553	6.6248	-0.9723	1.0052	16.9400 
1210.384	0.0264	0.1157	1.0801	6.6907	-0.7800	0.5603	16.9400 
1210.403	0.0640	0.1543	1.0083	6.8500	-0.6812	0.3680	16.9400 
1210.423	0.1274	0.0962	0.9014	6.9763	-0.7361	0.6207	16.9200 
1210.526	0.2192	0.1235	0.7773	7.1082	-0.7910	0.8020	16.9400 
1210.543	0.2085	0.1104	0.7671	7.2290	-0.7690	0.7745	16.9400 
1210.543	0.0991	0.0132	0.9058	7.1851	-0.5548	0.5383	16.9300 
1210.543	0.0479	0.0552	0.9224	7.1191	-0.2472	-0.0165	16.9400 
1210.545	0.0469	0.1719	0.9595	7.1082	0.0330	-0.5383	16.9300 
1210.545	0.0947	0.1274	0.9238	7.0258	0.1428	-0.6702	16.9300 
1210.565	0.1353	0.1016	0.9585	6.8610	0.2417	-0.6921	16.9300 
1210.588	0.1279	0.1548	0.9883	6.7346	0.3955	-0.8624	16.9100 
1210.602	0.1152	0.1499	0.9966	6.6357	0.5493	-0.9778	16.9200 
1210.625	0.0962	0.0952	0.9717	6.5149	0.6812	-0.9998	16.9300 
1210.731	0.0698	0.0947	1.0015	6.4160	0.8789	-1.0986	16.9200 
1210.764	0.0737	0.1431	0.9893	6.3940	1.0437	-1.2085	16.9300 
1210.764	0.0962	0.1641	1.0103	6.4380	1.1316	-1.1261	16.9100 
1210.764	0.1245	0.1851	0.9951	6.5369	1.1206	-0.9119	16.9000 
1210.764	0.1860	0.2192	0.9712	6.6632	1.0382	-0.6262	16.9300 
1210.764	0.2144	0.2222	0.9746	6.8005	0.9283	-0.3571	16.9200 
1210.785	0.1855	0.2168	1.0229	6.9159	0.9119	-0.2582	16.9000 
1210.786	0.1304	0.2036	1.0557	7.0148	0.9998	-0.3186	16.9200 
1210.882	-0.0127	0.1060	1.2202	7.1082	1.2195	-0.4779	16.9200 
1210.899	-0.0288	0.1782	1.3652	7.2015	1.5326	-0.7526	16.9100 
1210.899	-0.0015	0.2754	1.3350	7.3499	1.7139	-0.9229	16.9300 
1210.899	-0.0005	0.1362	1.1763	7.4487	1.7194	-0.8789	16.9200 
1210.899	-0.0415	0.0293	0.8794	7.4487	1.7633	-1.0437	16.9100 
1210.920	-0.1489	-0.0601	0.8896	7.3828	2.0764	-1.4832	16.9100 
1210.941	-0.3208	-0.2729	1.1118	7.2400	2.4939	-2.0105	16.9100 
1210.962	-0.3101	-0.0864	1.2075	7.0752	2.8180	-2.7191	16.9200 
1210.982	-0.1455	0.1895	1.2607	7.0038	2.8015	-2.9828	16.9200 
1210.982	-0.0703	0.0176	1.1670	6.9049	2.3621	-2.4280	16.9100 
1211.004	0.0259	0.0493	1.1597	6.7291	1.9775	-1.9116	16.9200 
1211.024	0.0645	0.1787	1.1069	6.6852	1.7413	-1.6864	16.9200 
1211.039	0.0732	0.1514	0.9429	6.7291	1.5491	-1.4008	16.9200 
1211.059	0.0474	0.1167	0.8442	6.7731	1.4227	-1.1316	16.9100 
1211.152	0.0054	0.2021	0.7773	6.8884	1.3898	-1.1206	16.9200 
1211.165	-0.0190	0.1943	0.8076	7.0367	1.3623	-1.1041	16.9200 
1211.165	-0.0063	0.0830	0.8330	7.0203	1.2415	-0.9174	16.9200 
1211.166	-0.0024	0.0796	0.8667	6.8939	1.1096	-0.7690	16.9200 
1211.166	0.0332	0.1924	0.8662	6.8280	0.9998	-0.8350	16.9200 
1211.183	0.0601	0.2310	0.8721	6.8225	0.8569	-0.9174	16.9300 
1211.200	0.0586	0.2041	0.8857	6.8170	0.6976	-0.9064	16.9100 
1211.312	0.0200	0.1704	0.9448	6.8060	0.5933	-0.8789	16.9300 
1211.337	-0.0156	0.2090	0.9683	6.8170	0.5383	-0.9888	16.9400 
1211.337	-0.0156	0.2534	0.9785	6.8665	0.4834	-1.1591	16.9400 
1211.337	-0.0044	0.2295	1.0010	6.8994	0.3845	-1.2030	16.9100 
1211.337	-0.0059	0.1694	1.0620	6.8884	0.2362	-1.2250	16.9300 
1211.337	0.0059	0.2227	1.1118	6.9269	0.1044	-1.4392	16.9200 
1211.360	0.0229	0.2676	1.1021	7.0587	-0.0714	-1.6205	16.9200 
1211.360	0.0171	0.2339	1.0791	7.1906	-0.2856	-1.6534	16.9200 
1211.377	-0.0024	0.1987	1.1523	7.3224	-0.4395	-1.6370	16.9300 
1211.402	0.0269	0.2056	1.2632	7.4872	-0.5713	-1.6095	16.9300 
1211.417	0.1357	0.3105	1.2739	7.7454	-0.7855	-1.4667	16.9300 
1211.521	0.1670	0.1919	1.1675	8.0200	-1.1591	-1.0107	16.9200 
1211.531	0.1865	0.0322	1.1152	8.1848	-1.3788	-0.5878	16.9300 
1211.531	0.2070	0.0742	1.1108	8.3112	-1.3403	-0.5054	16.9300 
1211.531	0.2539	0.0688	1.0977	8.3771	-1.2360	-0.4340	16.9200 
1211.531	0.2695	-0.0171	1.0815	8.3002	-1.1481	-0.3241	16.9300 
1211.558	0.1768	-0.0767	1.1372	8.1409	-0.9174	-0.5713	16.9300 
1211.581	0.0747	-0.0366	1.2271	8.0090	-0.5219	-1.2469	16.9400 
1211.581	0.0024	0.1011	1.1362	7.9596	-0.1318	-2.0929	16.9400 
1211.597	0.0132	0.1245	0.9907	7.9321	0.1263	-2.7081	16.9400 
1211.621	0.0435	0.0391	0.7866	7.8827	0.2802	-2.9938	16.9300 
1211.637	0.0610	0.0225	0.7124	7.8387	0.4504	-3.2300	16.9300 
1211.728	0.0435	0.0527	0.7603	7.8442	0.7581	-3.5541	16.9300 
1211.750	0.0322	0.0439	0.8149	7.8662	1.0876	-3.9331	16.9300 
1211.750	0.0537	0.1323	0.8574	7.9596	1.3403	-4.2627	16.9300 
1211.750	0.0815	0.1211	0.9126	7.9706	1.4886	-4.3945	16.9200 
1211.750	0.1357	0.0586	0.9448	7.8552	1.5051	-4.3616	16.9300 
1211.777	0.1367	0.0688	0.9678	7.7563	1.4886	-4.3726	16.9300 
1211.797	0.1133	0.1387	1.0122	7.7563	1.5106	-4.4769	16.9300 
1211.798	0.1401	0.2451	0.9697	7.8168	1.5326	-4.6527	16.9200 
1211.821	0.1816	0.2808	1.0596	7.9266	1.5216	-4.6252	16.9300 
1211.840	0.1797	0.1406	1.0259	7.9596	1.3843	-4.2792	16.9300 
1211.944	0.1094	0.1479	1.0371	7.9541	1.3898	-4.1254	16.9200 
1211.966	0.0645	0.2041	1.0825	8.0310	1.5436	-4.1583	16.9100 
1211.966	0.0801	0.2192	1.0640	8.1738	1.6315	-4.0485	16.9300 
1211.966	0.1680	0.3247	1.0181	8.3496	1.6425	-3.8672	16.9300 
1211.966	0.2471	0.2876	1.0195	8.5254	1.5930	-3.5321	16.9200 
1211.966	0.2085	0.1411	0.9590	8.6353	1.4996	-3.0981	16.9200 
1211.997	-0.0112	0.1035	1.0981	8.8110	1.7084	-3.0377	16.9200 
1212.009	-0.0977	0.1636	1.2852	9.1791	2.1094	-3.2025	16.9200 
1212.036	-0.0400	0.2964	1.1836	9.7559	2.1863	-3.1476	16.9200 
1212.051	-0.0317	0.2056	1.1138	10.4095	1.9336	-2.7466	16.9400 
1212.153	-0.0786	0.0464	1.0659	10.8435	1.7303	-2.3071	16.9300 
1212.164	-0.1104	0.0913	1.0337	11.0632	1.7798	-2.2742	16.9200 
1212.164	-0.1641	0.2036	1.1138	11.1511	2.1204	-2.4060	16.9200 
1212.164	-0.2090	0.1074	1.2158	11.1072	2.4170	-2.2906	16.9100 
1212.164	-0.1069	0.2310	1.1748	10.9314	2.5763	-2.1478	16.9300 
1212.164	-0.0410	0.2578	1.0996	10.7336	2.6038	-1.8842	16.9200 
1212.182	-0.0063	0.1768	1.0190	10.4919	2.4664	-1.4227	16.9200 
1212.213	0.0156	0.1426	0.8926	10.2173	2.3511	-1.0217	16.9200 
1212.237	0.0132	0.1558	0.8394	9.9646	2.2852	-0.7086	16.9100 
1212.237	-0.0073	0.1348	0.8120	9.7229	2.2192	-0.4010	16.9100 
1212.252	-0.0059	0.1763	0.8037	9.5142	2.1313	-0.2032	16.9200 
1212.271	0.0010	0.2173	0.8560	9.3604	2.0435	-0.0275	16.9100 
1212.387	0.0151	0.1958	0.8682	9.1571	1.9446	0.1978	16.9200 
1212.396	-0.0059	0.1626	0.8916	8.8989	1.9171	0.3790	16.9100 
1212.396	-0.0239	0.1499	0.8662	8.6737	1.9446	0.4724	16.9200 
1212.396	-0.0400	0.1484	0.9087	8.4924	2.0380	0.4834	16.9100 
1212.396	-0.0366	0.2183	0.9683	8.3881	2.1533	0.3680	16.9100 
1212.397	-0.0044	0.3149	0.9697	8.3551	2.1753	0.2417	16.9200 
1212.417	0.0190	0.3296	0.9951	8.3112	2.1643	0.2197	16.9100 
1212.436	0.0215	0.2637	1.0293	8.2233	2.1039	0.3131	16.8900 
1212.529	0.0098	0.2500	1.0283	8.1519	2.0215	0.3186	16.9000 
1212.546	0.0049	0.3345	1.0376	8.1793	1.9556	0.1263	16.9000 
1212.546	0.0020	0.3403	0.9941	8.2562	1.8237	-0.0220	16.9000 
1212.546	-0.0137	0.2666	0.9731	8.3276	1.6644	-0.0989	16.9200 
1212.546	-0.0186	0.3252	0.9590	8.4155	1.5381	-0.2911	16.9100 
1212.573	-0.0015	0.3403	0.9990	8.5199	1.3458	-0.4944	16.9000 
1212.592	0.0693	0.2871	1.1230	8.5419	1.0712	-0.6207	16.9000 
1212.592	0.1680	0.1812	1.2310	8.5199	0.6921	-0.5768	16.9000 
1212.614	0.1577	0.0562	1.2295	8.5144	0.2966	-0.4449	16.9200 
1212.639	0.1724	-0.0288	1.2383	8.4595	0.0549	-0.3845	16.9100 
1212.728	0.1704	-0.0576	1.4033	8.3606	0.0659	-0.2252	16.9000 
1212.748	0.1865	-0.1226	1.3657	8.1958	0.0275	0.1373	16.9000 
1212.748	0.1323	-0.1880	1.2866	7.9486	-0.0165	0.2802	16.9100 
1212.748	-0.0063	-0.0132	1.2368	7.8058	0.1813	-0.2802	16.9000 
1212.748	-0.0576	0.1421	1.1504	7.8662	0.5438	-1.1755	16.8900 
1212.767	0.0288	0.2070	0.8438	8.0255	0.7196	-1.8018	16.9000 
1212.784	0.0806	0.1265	0.7065	8.1519	0.8020	-2.0215	16.8900 
1212.796	0.0698	-0.0327	0.6841	8.1573	0.9119	-2.1149	16.9000 
1212.834	0.0337	-0.0020	0.7598	8.0695	1.2524	-2.5543	16.9000 
1212.930	0.0234	0.1172	0.8813	8.0310	1.6644	-3.1586	16.8800 
1212.965	0.0444	0.0996	0.8696	8.0310	1.9171	-3.5376	16.8800 
1212.966	0.0786	0.0952	0.8828	8.0090	2.0160	-3.6694	16.8800 
1212.966	0.0991	0.1523	0.9438	7.9651	2.1204	-3.7738	16.8800 
1212.966	0.1318	0.1230	1.0005	7.8497	2.1643	-3.7354	16.8800 
1212.966	0.1353	0.0732	1.0078	7.6794	2.1698	-3.6310	16.8900 
1212.966	0.1187	0.1802	1.0366	7.6355	2.2632	-3.7793	16.8800 
1212.985	0.0918	0.2153	1.0630	7.6904	2.3950	-3.9771	16.8800 
1213.007	0.0757	0.1973	1.0215	7.7563	2.4774	-4.0100	16.8700 
1213.026	0.0801	0.2344	1.0239	7.8278	2.5708	-3.9935	16.8900 
1213.049	0.0894	0.2524	1.0034	7.9211	2.6257	-3.8507	16.8700 
1213.064	0.0859	0.2129	1.0083	8.0090	2.6257	-3.5376	16.8700 
1213.089	0.0894	0.1875	1.0269	8.0640	2.6312	-3.1805	16.8700 
1213.090	0.1348	0.2495	1.0210	8.1464	2.6587	-2.9169	16.9000 
1213.205	0.1934	0.3169	1.0034	8.2947	2.6752	-2.6697	16.8900 
1213.227	0.1714	0.1606	0.9658	8.4210	2.6312	-2.2247	16.8800 
1213.228	0.0220	0.0000	1.0044	8.5419	2.7246	-1.8512	16.8800 
1213.228	-0.2222	-0.0137	1.3916	8.8275	3.1586	-1.8842	16.9000 
1213.228	-0.1509	0.2700	1.3228	9.3109	3.3124	-1.9885	16.8800 
1213.228	-0.0410	0.2153	1.1636	9.8328	3.0597	-1.5216	16.8900 
1213.228	-0.0425	0.0288	0.9956	10.0580	2.8070	-1.2085	16.8900 
1213.248	-0.1426	0.2456	1.0522	10.2557	3.1366	-1.7468	16.8800 
1213.344	-0.2451	0.2021	1.2095	10.4535	3.5760	-2.0984	16.8900 
1213.362	-0.2417	0.0591	1.2495	10.4755	3.7628	-2.1753	16.8700 
1213.362	-0.1230	0.2544	1.1328	10.4645	3.7793	-2.3181	16.8600 
1213.362	-0.0093	0.2397	1.0337	10.4755	3.5266	-2.0105	16.8700 
1213.362	0.0391	0.0928	0.9219	10.3876	3.1256	-1.3733	16.8700 
1213.383	0.0439	0.1309	0.8481	10.2338	2.8949	-1.0052	16.8600 
1213.406	0.0083	0.1953	0.8164	10.1459	2.7740	-0.9338	16.8600 
1213.426	-0.0493	0.1216	0.8105	10.0140	2.7026	-0.9174	16.8600 
1213.448	-0.0791	0.1040	0.8296	9.8108	2.7191	-1.0327	16.8600 
1213.448	-0.0552	0.2485	0.8862	9.6844	2.7686	-1.3293	16.8700 
1213.554	-0.0303	0.2402	0.8955	9.5581	2.7081	-1.4667	16.8800 
1213.584	0.0142	0.1592	0.9072	9.2999	2.5763	-1.5546	16.8600 
1213.585	0.0205	0.2041	0.9116	9.0582	2.5323	-1.9391	16.8700 
1213.585	0.0171	0.2856	0.9028	8.8770	2.6093	-2.5049	16.8600 
1213.585	0.0015	0.2651	0.8901	8.7396	2.6697	-2.9498	16.8600 
1213.585	-0.0498	0.2607	0.9355	8.6188	2.7576	-3.3234	16.8500 
1213.585	-0.0674	0.2778	1.0063	8.4814	2.8949	-3.6694	16.8600 
1213.604	-0.0522	0.2612	1.0190	8.3057	2.9279	-3.9001	16.8400 
1213.625	-0.0610	0.2261	0.9800	8.1354	2.8510	-4.0540	16.8600 
1213.646	-0.0684	0.2720	1.0210	8.0530	2.7740	-4.3066	16.8500 
1213.759	-0.0767	0.3281	1.0659	8.1079	2.6697	-4.5813	16.8500 
1213.781	-0.0513	0.3115	0.9946	8.2727	2.4115	-4.6747	16.8600 
1213.781	-0.0376	0.2749	0.9995	8.4485	2.1094	-4.6143	16.8500 
1213.781	-0.0107	0.2617	1.2065	8.5913	1.8622	-4.4495	16.8600 
1213.781	0.0225	0.2051	1.3906	8.6737	1.6040	-4.0375	16.8700 
1213.781	0.1719	0.2651	1.2744	8.7341	1.1316	-3.4277	16.8600 
1213.803	0.2207	0.2061	1.1133	8.8110	0.5273	-2.5983	16.8600 
1213.824	0.1826	-0.0747	0.9814	8.7067	0.0439	-1.5271	16.8600 
1213.845	0.1426	-0.1738	1.0054	8.4485	-0.0824	-0.7196	16.8500 
1213.846	0.0820	-0.0908	1.1182	8.2452	0.1428	-0.8240	16.8600 
1213.866	0.0493	-0.0371	1.2104	8.1244	0.4559	-1.3403	16.8600 
1213.972	0.0322	0.0542	1.2451	8.0750	0.6647	-1.8787	16.8600 
1213.998	0.0684	0.1396	1.1738	8.0804	0.7361	-2.2742	16.8600 
1213.998	0.0874	0.1152	1.1147	8.0145	0.6427	-2.3181	16.8500 
1213.998	0.1050	0.0181	0.9492	7.8442	0.5164	-2.1918	16.8500 
1213.998	0.1094	0.0664	0.8701	7.7454	0.5438	-2.2906	16.8600 
1213.998	0.0952	0.1367	0.8130	7.7399	0.6921	-2.4829	16.8400 
1214.020	0.0869	0.1284	0.7983	7.7454	0.8899	-2.6312	16.8400 
1214.041	0.0654	0.1304	0.8022	7.7344	1.1206	-2.8455	16.8500 
1214.061	0.0459	0.1299	0.8638	7.7234	1.4172	-3.0103	16.8400 
1214.077	0.0576	0.0859	0.8945	7.6575	1.6479	-3.0048	16.8400 
1214.196	0.0845	0.0933	0.9150	7.5696	1.8622	-2.9443	16.8300 
1214.214	0.1064	0.1035	0.9321	7.5201	2.0435	-2.9224	16.8400 
1214.214	0.1138	0.1533	0.9966	7.5531	2.2357	-3.0103	16.8400 
1214.214	0.0977	0.2197	1.0762	7.6630	2.3785	-3.0267	16.8300 
1214.214	0.0933	0.2036	1.0698	7.7893	2.4225	-2.8345	16.8400 
1214.214	0.0947	0.1772	1.0820	7.9156	2.4335	-2.4664	16.8400 
1214.215	0.1045	0.2261	1.1147	8.0695	2.4609	-2.0984	16.8400 
1214.232	0.1875	0.3442	1.0854	8.2617	2.4280	-1.7303	16.8300 
1214.260	0.2456	0.3438	1.0313	8.4540	2.3401	-1.3403	16.8300 
1214.274	0.2070	0.2778	1.0186	8.6023	2.3785	-1.0876	16.8300 
1214.297	0.0825	0.1689	1.0049	8.7726	2.5214	-0.9448	16.8400 
1214.410	-0.1450	0.0327	1.1094	9.0417	2.7960	-0.9503	16.8400 
1214.430	-0.1836	0.1406	1.1968	9.4427	3.0927	-1.1096	16.8400 
1214.431	-0.0952	0.3882	1.1138	9.9756	3.0762	-0.9943	16.8300 
1214.431	-0.0532	0.1245	1.0308	10.3217	2.7026	-0.2197	16.8300 
1214.431	-0.0825	0.0054	0.9058	10.3326	2.4774	0.1923	16.8300 
1214.431	-0.1362	0.2256	1.1304	10.3381	2.8290	-0.1208	16.8200 
1214.431	-0.2021	0.0625	1.2749	10.2997	3.0927	-0.1483	16.8000 
1214.458	-0.1523	0.1094	1.3320	10.1349	3.2520	-0.1044	16.8300 
1214.557	-0.0229	0.2935	1.2222	10.0415	3.2190	-0.0385	16.8200 
1214.579	0.0122	0.1577	1.0742	9.9152	2.9773	0.4175	16.8100 
1214.579	0.0127	0.1323	0.9121	9.7119	2.8345	0.7690	16.8100 
1214.579	-0.0083	0.2158	0.8545	9.5911	2.8564	0.8020	16.8300 
1214.579	-0.0283	0.2324	0.7705	9.5361	2.8510	0.8459	16.8300 
1214.579	-0.0347	0.1626	0.7461	9.4373	2.7850	0.9888	16.8200 
1214.579	-0.0337	0.1938	0.7769	9.2999	2.7795	1.0327	16.8200 
1214.597	-0.0361	0.2021	0.8457	9.1241	2.8345	1.0327	16.8200 
1214.618	-0.0322	0.1479	0.8750	8.9154	2.8070	1.0602	16.8300 
1214.639	-0.0313	0.1289	0.9067	8.7286	2.7576	1.0327	16.8100 
1214.658	-0.0322	0.2085	0.9243	8.6407	2.7191	0.7690	16.8300 
1214.680	-0.0244	0.2930	0.9272	8.6462	2.7191	0.3900	16.8300 
1214.701	-0.0303	0.2793	0.9497	8.6902	2.7081	0.1703	16.8100 
1214.716	-0.0405	0.2578	0.9521	8.6957	2.6807	0.0439	16.8000 
1214.736	-0.0332	0.3140	0.9956	8.6792	2.6532	-0.1318	16.8200 
1214.856	-0.0054	0.3120	1.0024	8.6627	2.5433	-0.2637	16.8300 
1214.896	-0.0161	0.2554	1.0146	8.6243	2.3621	-0.2856	16.8300 
1214.896	-0.0386	0.2485	1.0200	8.6133	2.2192	-0.3571	16.8200 
1214.896	-0.0620	0.2656	1.0518	8.6462	2.1368	-0.4504	16.8300 
1214.896	-0.0874	0.2593	1.0439	8.7122	1.9885	-0.4230	16.8100 
1214.896	-0.0366	0.2710	1.1162	8.8165	1.7908	-0.2966	16.8000 
1214.896	0.0991	0.3135	1.2627	8.9539	1.4941	-0.0385	16.8200 
1215.004	0.1787	0.2627	1.1772	9.1626	0.9833	0.3955	16.8300 
1215.034	0.1753	0.0576	1.1104	9.2889	0.5493	0.8405	16.8200 
1215.034	0.1460	0.0859	1.2417	9.3658	0.4834	1.0272	16.8200 
1215.034	0.1660	0.0435	1.2100	9.3439	0.3900	1.3239	16.8200 
1215.034	0.1943	0.0103	1.1465	9.2010	0.2582	1.5820	16.8100 
1215.034	0.1421	0.0303	1.1982	9.0143	0.2692	1.5601	16.8200 
1215.034	0.0386	0.0215	1.2642	8.8165	0.4449	1.3403	16.8400 
1215.054	0.0083	0.1709	1.1128	8.7122	0.6207	0.9119	16.8200 
1215.075	0.0459	0.2314	0.9214	8.7451	0.6866	0.6262	16.8100 
1215.097	0.0566	0.0767	0.7544	8.7177	0.6921	0.6976	16.8000 
1215.097	0.0562	0.0078	0.7407	8.5583	0.8240	0.7471	16.8100 
1215.118	0.0200	0.0737	0.8032	8.3936	1.1755	0.4889	16.8000 
1215.224	0.0073	0.1182	0.8438	8.3002	1.5656	0.1758	16.8100 
1215.252	0.0503	0.0913	0.8604	8.2178	1.8127	0.1044	16.8100 
1215.252	0.0811	0.0864	0.8862	8.0750	1.9775	0.1538	16.8100 
1215.252	0.1074	0.1089	0.9858	7.8992	2.1313	0.2362	16.8000 
1215.253	0.1318	0.1353	1.0093	7.7783	2.2192	0.2966	16.8000 
1215.253	0.1479	0.2202	0.9946	7.7673	2.2357	0.3296	16.8000 
1215.274	0.1396	0.2344	0.9941	7.8278	2.2577	0.3845	16.8000 
1215.295	0.1030	0.2231	1.0010	7.9211	2.2742	0.4779	16.8000 
1215.309	0.0850	0.2402	1.0137	8.0475	2.3401	0.5713	16.8200 
1215.335	0.0688	0.2144	1.0278	8.1738	2.4060	0.7471	16.8000 
1215.335	0.0591	0.1899	1.0439	8.2892	2.4719	1.0052	16.8100 
1215.443	0.1021	0.2324	1.0571	8.4375	2.5214	1.3019	16.8100 
1215.471	0.1235	0.2173	1.0728	8.6133	2.5323	1.7303	16.7900 
1215.471	0.1240	0.2100	1.0854	8.8165	2.5433	2.1808	16.7800 
1215.471	0.0273	0.1255	1.1582	9.0637	2.6532	2.6257	16.8000 
1215.472	-0.0732	0.2227	1.2793	9.3494	2.9114	2.8784	16.8000 
1215.472	-0.0723	0.3179	1.1226	9.7284	3.0542	3.0267	16.7900 
1215.493	-0.1577	0.0249	0.9756	9.9921	3.0927	3.3069	16.8000 
1215.598	-0.2080	0.0752	1.0127	10.0140	3.4222	3.1091	16.8000 
1215.612	-0.2588	0.1025	1.1982	9.9316	3.8177	2.7576	16.7800 
1215.612	-0.2446	-0.0195	1.2964	9.7614	3.9606	2.7850	16.8000 
1215.612	-0.1226	0.1992	1.2515	9.6130	3.8617	2.8674	16.7800 
1215.612	-0.0342	0.2964	1.1777	9.5636	3.5925	3.1915	16.7800 
1215.612	0.0654	0.1479	0.9326	9.5032	3.0652	4.0485	16.7600 
1215.612	0.0903	0.1709	0.8276	9.3658	2.6477	4.8285	16.7900 
1215.630	0.0752	0.2104	0.7520	9.2175	2.4170	5.2679	16.7800 
1215.652	0.0459	0.1323	0.7290	9.0198	2.2028	5.6195	16.7600 
1215.671	0.0342	0.1440	0.7285	8.7781	2.0819	5.7239	16.7700 
1215.692	0.0078	0.1812	0.7866	8.5913	1.9940	5.6689	16.7700 
1215.800	-0.0171	0.1938	0.8506	8.4210	1.8896	5.5481	16.7600 
1215.830	0.0010	0.2373	0.8628	8.2837	1.7303	5.4272	16.7700 
1215.830	-0.0151	0.1558	0.8955	8.1024	1.5546	5.4547	16.7600 
1215.830	-0.0615	0.0708	0.8936	7.8992	1.4447	5.4437	16.7500 
1215.830	-0.0801	0.1792	0.9292	7.8003	1.4832	5.2844	16.7600 
1215.830	-0.0449	0.2686	0.9917	7.7509	1.4337	5.3558	16.7600 
1215.830	0.0244	0.2764	0.9771	7.6630	1.1865	5.6964	16.7700 
1215.850	0.0757	0.2764	1.0542	7.5916	0.8954	6.0919	16.7400 
1215.872	0.0874	0.2622	1.0781	7.5641	0.5823	6.4325	16.7500 
1215.891	0.0566	0.2944	1.0952	7.6245	0.3351	6.5753	16.7600 
1215.911	0.0313	0.3330	1.0732	7.7454	0.1593	6.5643	16.7500 
1216.005	0.0547	0.3696	1.0850	7.8992	0.0275	6.4984	16.7600 
1216.011	0.1040	0.3101	1.2036	7.9871	-0.1208	6.5259	16.7500 
1216.013	0.1699	0.2056	1.4443	7.9651	-0.3076	6.7401	16.7400 
1216.013	0.1792	0.1992	1.4248	7.9651	-0.5603	6.9653	16.7500 
1216.013	0.2480	0.0815	1.2178	7.9047	-0.8514	7.3389	16.7600 
1216.028	0.2256	-0.0278	1.1211	7.7673	-1.0162	7.8058	16.7400 
1216.048	0.1890	-0.1592	1.0459	7.5366	-0.9723	8.0475	16.7400 
1216.071	0.1274	-0.1821	1.1221	7.3004	-0.7141	7.8827	16.7400 
1216.089	0.0171	0.0132	1.2295	7.2510	-0.2856	7.0917	16.7400 
1216.110	-0.0093	0.1104	1.1689	7.3169	0.0055	6.3391	16.7500 
1216.206	0.0498	0.1499	1.0127	7.3718	0.1263	5.8942	16.7400 
1216.227	0.0903	0.0669	0.9077	7.2949	0.1373	5.7953	16.7500 
1216.227	0.1108	-0.0669	0.8110	7.1027	0.1923	5.7843	16.7400 
1216.227	0.0923	0.0132	0.8394	6.9873	0.4559	5.4327	16.7400 
1216.227	0.0679	0.0835	0.8330	7.0038	0.7690	4.9274	16.7400 
1216.227	0.0640	0.0796	0.8447	7.0258	1.0382	4.5099	16.7400 
1216.248	0.0752	0.0674	0.8657	7.0258	1.2744	4.1583	16.7400 
1216.269	0.0796	0.0752	0.9092	6.9983	1.4941	3.8342	16.7500 
1216.289	0.1035	0.1050	0.9482	6.9543	1.7084	3.5376	16.7500 
1216.308	0.1143	0.0967	0.9116	6.9104	1.8677	3.2849	16.7400 
1216.403	0.0981	0.1216	0.9653	6.9104	2.0380	3.0048	16.7300 
1216.415	0.0957	0.1836	0.9917	6.9818	2.2192	2.6642	16.7400 
1216.415	0.0991	0.1743	0.9995	7.1027	2.3621	2.4554	16.7400 
1216.415	0.0850	0.1426	1.0469	7.2235	2.5049	2.3566	16.7400 
1216.415	0.0483	0.1489	1.0815	7.3553	2.6697	2.2357	16.7200 
1216.444	0.0361	0.1895	1.0693	7.5476	2.8400	2.0984	16.7400 
1216.465	0.0942	0.2876	1.0254	7.8278	2.9443	2.0654	16.7300 
1216.483	0.1509	0.2788	0.9907	8.1354	2.9498	2.2192	16.7400 
1216.505	0.1567	0.2476	0.9795	8.4320	2.9498	2.4500	16.7400 
1216.628	0.0918	0.1958	1.0078	8.7286	3.0377	2.6202	16.7200 
1216.663	-0.0571	0.0776	1.1855	9.0143	3.2959	2.7631	16.7300 
1216.663	-0.0962	0.2393	1.1665	9.3768	3.5156	2.6202	16.7200 
1216.663	-0.1074	0.3203	1.0981	9.8547	3.5596	2.5269	16.7000 
1216.663	-0.1528	0.0200	0.9961	10.0964	3.4827	2.6532	16.7400 
1216.663	-0.1943	0.0815	1.0674	10.1129	3.7518	2.2906	16.7300 
1216.664	-0.1963	0.2485	1.2607	10.0909	4.0759	1.9336	16.7200 
1216.664	-0.1758	0.0835	1.3149	10.0031	4.0594	2.1204	16.7300 
1216.684	-0.0659	0.1699	1.2251	9.8657	3.9111	2.2028	16.7300 
1216.707	-0.0161	0.3105	1.1372	9.7998	3.7463	2.2632	16.7300 
1216.707	0.0356	0.1631	0.9272	9.6899	3.4277	2.7521	16.7300 
1216.728	0.0317	0.0811	0.7827	9.4867	3.1586	3.2410	16.7200 
1216.842	0.0063	0.2134	0.7305	9.2999	3.1091	3.3289	16.7300 
1216.863	-0.0078	0.2251	0.7539	9.1351	3.0487	3.4113	16.7100 
1216.864	-0.0024	0.1211	0.7515	8.8715	2.8839	3.6035	16.6900 
1216.864	-0.0010	0.1494	0.7817	8.5913	2.7686	3.6365	16.7100 
1216.864	-0.0146	0.1997	0.8813	8.3496	2.7136	3.5156	16.7100 
1216.864	-0.0020	0.1855	0.9263	8.0859	2.6257	3.4167	16.7100 
1216.885	0.0112	0.2085	0.9341	7.8333	2.5323	3.2574	16.7200 
1216.905	-0.0063	0.2451	0.9160	7.6740	2.4664	3.0597	16.7100 
1216.905	-0.0596	0.1724	0.9565	7.5531	2.4280	3.0048	16.7000 
1216.926	-0.0688	0.1909	0.9585	7.4213	2.3895	2.9169	16.7200 
1216.945	-0.0332	0.2881	0.9922	7.3224	2.3016	2.8180	16.7100 
1217.044	-0.0088	0.2158	1.0430	7.2015	2.0709	2.9388	16.7000 
1217.062	0.0049	0.1865	1.1143	7.0587	1.8182	3.0267	16.6900 
1217.062	-0.0088	0.2529	1.1592	7.0477	1.6205	2.9279	16.7100 
1217.062	-0.0278	0.2715	1.1357	7.1411	1.3953	2.8894	16.7000 
1217.062	-0.0107	0.2607	1.1719	7.2400	1.1755	3.0267	16.6900 
1217.062	0.0615	0.2104	1.2993	7.3224	0.9229	3.3289	16.7100 
1217.081	0.1421	0.2358	1.2515	7.4432	0.5768	3.6420	16.6800 
1217.102	0.1943	0.1821	1.1416	7.6080	0.2417	3.9441	16.6800 
1217.122	0.2163	0.1143	1.0718	7.7069	0.0275	4.2792	16.6800 
1217.143	0.2070	0.0166	1.0225	7.7454	-0.0110	4.5813	16.6800 
1217.239	0.1855	-0.0562	1.0825	7.6904	0.0714	4.7681	16.7000 
1217.261	0.1367	-0.0293	1.1328	7.5916	0.2582	4.5648	16.6700 
1217.262	0.0503	-0.0342	1.2358	7.5201	0.5713	4.1034	16.6600 
1217.262	-0.0322	0.0776	1.2217	7.5037	0.8899	3.4113	16.6700 
1217.262	-0.0156	0.1533	1.1040	7.5201	1.1316	2.7740	16.6700 
1217.262	0.0444	0.0728	0.8872	7.4982	1.2250	2.5543	16.6500 
1217.279	0.0747	0.0391	0.8071	7.4487	1.3129	2.4884	16.6500 
1217.300	0.1016	0.0981	0.8027	7.4542	1.5106	2.2852	16.6500 
1217.321	0.0801	0.0791	0.7837	7.4927	1.6974	2.0215	16.6500 
1217.342	0.0498	0.0796	0.7905	7.5311	1.9226	1.6205	16.6500 
1217.443	0.0298	0.1157	0.8589	7.5696	2.1918	1.1316	16.6600 
1217.459	0.0234	0.1006	0.9053	7.5476	2.3840	0.7855	16.6800 
1217.459	0.0625	0.0962	0.9609	7.4542	2.4774	0.5493	16.6500 
1217.459	0.0913	0.1260	0.9888	7.3663	2.4939	0.4230	16.6500 
1217.461	0.1226	0.1611	1.0078	7.3444	2.4390	0.4175	16.6500 
1217.461	0.1377	0.1753	1.0093	7.3718	2.3730	0.4340	16.6500 
1217.480	0.1362	0.2383	1.0269	7.4762	2.3566	0.4175	16.6600 
1217.501	0.1050	0.2056	1.0728	7.6135	2.3840	0.4889	16.6500 
1217.520	0.0586	0.1509	1.0728	7.7124	2.4609	0.5823	16.6500 
1217.540	0.0869	0.2695	1.0635	7.8442	2.6147	0.5273	16.6500 
1217.658	0.1924	0.3335	1.0127	8.0585	2.6532	0.6592	16.6600 
1217.679	0.2363	0.2554	0.9736	8.2507	2.5763	0.9778	16.6700 
1217.680	0.1362	0.1509	0.9639	8.4265	2.6147	1.1261	16.6500 
1217.680	-0.0049	0.1167	1.0894	8.6792	2.8894	1.0382	16.6500 
1217.680	-0.1348	0.1567	1.3022	9.0527	3.2355	0.8679	16.6500 
1217.680	-0.1152	0.2817	1.2725	9.5251	3.3673	0.8679	16.6500 
1217.680	-0.0884	0.0977	1.1250	9.9207	3.1915	1.3129	16.6600 
1217.699	-0.1196	-0.0239	0.9775	10.1294	3.1091	1.5051	16.6700 
1217.716	-0.2163	0.1763	1.0581	10.3436	3.5321	1.1041	16.6500 
1217.742	-0.2686	0.1265	1.2070	10.5139	3.9276	0.9338	16.6500 
1217.762	-0.2021	0.1299	1.2954	10.4974	4.0924	0.9229	16.6500 
1217.780	-0.0884	0.2979	1.2236	10.4974	4.0814	0.9283	16.6400 
1217.862	0.0117	0.2500	0.9731	10.5579	3.7903	1.2744	16.6300 
1217.876	0.0269	0.1680	0.8726	10.5414	3.4607	1.8018	16.6500 
1217.876	-0.0034	0.1675	0.7920	10.4425	3.2629	2.0984	16.6300 
1217.876	-0.0293	0.2397	0.7993	10.3162	3.1860	2.1753	16.6200 
1217.876	-0.0542	0.1548	0.7524	10.1459	3.0762	2.3566	16.6100 
1217.899	-0.0527	0.1538	0.7681	9.9152	2.9773	2.4994	16.6300 
1217.918	-0.0225	0.2363	0.8042	9.7229	2.9114	2.5928	16.6300 
1217.939	-0.0083	0.1733	0.8706	9.4757	2.7905	2.7960	16.6300 
1217.960	0.0054	0.1626	0.9375	9.1791	2.6862	2.8619	16.6200 
1218.058	0.0171	0.2368	0.9282	8.9703	2.6532	2.6422	16.6300 
1218.078	0.0098	0.2813	0.9297	8.8440	2.6752	2.3346	16.6400 
1218.078	-0.0293	0.2319	0.9199	8.7122	2.7081	2.0984	16.6100 
1218.078	-0.0903	0.2329	0.9668	8.6023	2.7905	1.8292	16.6200 
1218.078	-0.1060	0.2686	1.0132	8.5364	2.8674	1.5765	16.6200 
1218.078	-0.0879	0.2534	1.0586	8.4814	2.7850	1.4941	16.6200 
1218.096	-0.0376	0.2744	1.0986	8.4265	2.5763	1.4886	16.6200 
1218.115	0.0156	0.2690	1.0894	8.4265	2.2467	1.5546	16.6100 
1218.137	0.0024	0.2690	1.0830	8.4869	1.9226	1.6205	16.6200 
1218.154	-0.0195	0.3237	1.0918	8.6188	1.6864	1.6589	16.6200 
1218.174	-0.0024	0.2661	1.1646	8.7616	1.4667	1.8127	16.6100 
1218.290	0.0786	0.2847	1.2476	8.9044	1.2085	2.0215	16.6000 
1218.314	0.1284	0.3081	1.1577	9.1241	0.8734	2.2083	16.6300 
1218.314	0.1177	0.1870	1.0952	9.3164	0.5438	2.5433	16.6100 
1218.314	0.1704	0.1416	1.0781	9.4208	0.3516	2.8510	16.6000 
1218.314	0.1987	0.0659	1.0918	9.4427	0.2142	3.3234	16.6100 
1218.314	0.2261	-0.0454	1.0366	9.3494	0.0659	3.8013	16.6000 
1218.330	0.1953	0.0093	1.1128	9.2230	0.1208	3.8068	16.6000 
1218.354	0.0640	0.0640	1.2749	9.1296	0.3296	3.5376	16.5900 
1218.369	0.0034	0.1045	1.2393	9.0692	0.5328	3.1915	16.6000 
1218.395	0.0293	0.1733	1.0083	9.0582	0.6537	2.8949	16.6000 
1218.395	0.0571	0.1387	0.8696	9.0802	0.7251	2.7740	16.6000 
1218.497	0.0820	0.0898	0.7236	9.0692	0.8569	2.7246	16.6000 
1218.531	0.0747	0.1016	0.7520	9.0253	1.1481	2.5873	16.6100 
1218.533	0.0527	0.1211	0.8125	8.9484	1.4941	2.3291	16.5800 
1218.533	0.0542	0.1309	0.8286	8.8550	1.7963	2.0435	16.6000 
1218.533	0.0605	0.1343	0.8867	8.7506	2.0490	1.8732	16.5900 
1218.533	0.0630	0.0654	0.9336	8.5419	2.2247	1.8622	16.5900 
1218.552	0.0781	0.1045	1.0264	8.2892	2.4005	1.8237	16.5800 
1218.566	0.0986	0.1733	1.0190	8.1354	2.5049	1.7578	16.5900 
1218.585	0.1396	0.2095	1.0254	8.0914	2.4939	1.8732	16.5700 
1218.701	0.1431	0.1948	0.9805	8.0750	2.4115	2.1204	16.5700 
1218.730	0.1035	0.1978	1.0029	8.0969	2.4005	2.3676	16.5900 
1218.730	0.0688	0.2007	1.0664	8.1519	2.4609	2.6532	16.5900 
1218.730	0.0547	0.1807	1.0713	8.2068	2.4774	3.0487	16.5800 
1218.730	0.0869	0.2173	1.0601	8.2672	2.4884	3.4497	16.5900 
1218.731	0.1792	0.2856	1.0313	8.3881	2.4664	3.8727	16.5900 
1218.731	0.2065	0.2354	1.0098	8.5254	2.4115	4.3945	16.6000 
1218.751	0.0991	0.1348	1.0796	8.6792	2.4225	4.8340	16.5800 
1218.773	-0.0625	0.1016	1.3232	8.8934	2.6862	5.0592	16.5800 
1218.787	-0.0659	0.3042	1.3379	9.2120	2.9114	5.1086	16.5700 
1218.818	-0.0596	0.2866	1.1025	9.6240	2.8290	5.3339	16.5700 
1218.818	-0.1377	0.0142	0.9097	9.8822	2.8015	5.5646	16.5800 
1218.911	-0.2036	0.0742	0.9902	9.9811	3.2025	5.2734	16.5800 
1218.930	-0.2510	0.1543	1.1348	10.0360	3.6530	4.9878	16.5900 
1218.930	-0.2236	0.0713	1.2324	10.0305	3.8232	5.0647	16.5800 
1218.930	-0.0601	0.2485	1.2080	9.9536	3.7463	5.2405	16.5900 
1218.930	0.0117	0.2759	1.0957	9.9426	3.4607	5.5701	16.5800 
1218.947	0.0884	0.1880	0.9526	9.9042	3.0542	6.1414	16.5700 
1218.970	0.0903	0.1338	0.8394	9.7778	2.6862	6.6467	16.5800 
1218.983	0.0322	0.2153	0.8076	9.6240	2.5104	6.7346	16.5800 
1219.015	0.0005	0.2178	0.8037	9.4867	2.4170	6.6907	16.5800 
1219.016	-0.0269	0.1377	0.7490	9.2999	2.2522	6.6577	16.5800 
1219.115	-0.0190	0.1895	0.7813	9.1077	2.1533	6.4709	16.5800 
1219.148	0.0146	0.2383	0.8794	8.9319	2.0874	6.2567	16.5800 
1219.148	0.0415	0.1851	0.8823	8.6737	1.9226	6.1359	16.5700 
1219.148	0.0513	0.1636	0.9160	8.3936	1.7908	5.9161	16.5800 
1219.148	0.0273	0.2397	0.9614	8.2123	1.7853	5.4657	16.5700 
1219.148	0.0103	0.2642	0.9653	8.1244	1.8127	5.0043	16.5800 
1219.168	0.0137	0.2520	0.9580	8.0255	1.8347	4.6143	16.5700 
1219.268	0.0078	0.2314	0.9985	7.8992	1.8677	4.2572	16.5700 
1219.277	-0.0093	0.2412	1.0488	7.7948	1.8787	3.8672	16.5700 
1219.277	-0.0161	0.2612	1.0957	7.7673	1.8677	3.4827	16.5800 
1219.277	-0.0293	0.2480	1.0938	7.7893	1.7908	3.1531	16.5600 
1219.277	-0.0400	0.2578	1.0737	7.8497	1.7084	2.8455	16.5600 
1219.278	-0.0361	0.2793	1.1167	7.9211	1.6425	2.6147	16.5600 
1219.308	-0.0054	0.2354	1.2173	7.9761	1.5326	2.5928	16.5700 
1219.327	0.0894	0.2241	1.2603	8.0640	1.2964	2.6917	16.5500 
1219.350	0.1411	0.2012	1.1870	8.2288	0.9668	2.8235	16.5600 
1219.350	0.1958	0.1362	1.0674	8.3441	0.7086	2.9773	16.5700 
1219.369	0.2197	0.1104	1.0342	8.4210	0.5823	3.1201	16.5700 
1219.462	0.1914	-0.0679	1.0669	8.3496	0.5768	3.2794	16.5600 
1219.479	0.1318	-0.1299	1.1128	8.1903	0.7306	3.0927	16.5600 
1219.480	-0.0049	0.0020	1.2837	8.1409	1.1426	2.2412	16.5600 
1219.480	-0.0615	0.0835	1.2607	8.2123	1.5051	1.3239	16.5700 
1219.480	-0.0381	0.1367	1.1455	8.2727	1.6754	0.6976	16.5700 
1219.499	0.0205	0.1064	0.9956	8.2507	1.7194	0.3406	16.5500 
1219.525	0.0762	0.0688	0.8354	8.2068	1.7963	0.1154	16.5600 
1219.546	0.0918	0.0913	0.8115	8.2013	1.9556	-0.1483	16.5700 
1219.568	0.0840	0.1309	0.8057	8.2288	2.1588	-0.5109	16.5500 
1219.662	0.0596	0.1260	0.8345	8.2397	2.4060	-0.9448	16.5700 
1219.680	0.0298	0.0903	0.8018	8.2397	2.6477	-1.4227	16.5500 
1219.680	0.0137	0.1318	0.8506	8.2397	2.9608	-1.9226	16.5400 
1219.680	0.0225	0.1265	0.9355	8.2178	3.2245	-2.2577	16.5600 
1219.680	0.0342	0.0791	0.9482	8.1409	3.3398	-2.3950	16.5500 
1219.680	0.0776	0.1709	0.9941	8.0750	3.4442	-2.5818	16.5400 
1219.697	0.1011	0.2065	0.9932	8.0750	3.4991	-2.7246	16.5500 
1219.724	0.1016	0.1943	1.0078	8.0969	3.5156	-2.7411	16.5500 
1219.746	0.0747	0.1929	1.0317	8.1409	3.5541	-2.7081	16.5600 
1219.746	0.0234	0.1724	1.0889	8.2013	3.6365	-2.6587	16.5400 
1219.769	0.0181	0.2217	1.0864	8.2727	3.7079	-2.6477	16.5400 
1219.784	0.0747	0.3203	1.0479	8.4100	3.7299	-2.5488	16.5400 
1219.806	0.0903	0.2568	0.9780	8.5583	3.6639	-2.2192	16.5400 
1219.828	0.0811	0.2173	0.9824	8.6517	3.6639	-1.9006	16.5600 
1219.931	0.0103	0.1885	1.0679	8.7946	3.7573	-1.6699	16.5500 
1219.945	-0.1416	0.0908	1.3286	9.0033	3.9166	-1.3733	16.5500 
1219.945	-0.0791	0.2749	1.1855	9.2834	3.9331	-1.1920	16.5500 
1219.945	-0.0879	0.1440	1.0273	9.6075	3.7683	-0.7635	16.5500 
1219.945	-0.1475	0.0054	0.9819	9.7614	3.6475	-0.3131	16.5300 
1219.945	-0.2134	0.1284	1.0400	9.8163	3.8782	-0.3790	16.5400 
1219.965	-0.2349	0.1943	1.1885	9.8383	4.0594	-0.2362	16.5400 
1219.984	-0.2212	0.0298	1.2046	9.7229	3.9825	0.3021	16.5400 
1220.089	-0.1084	0.2207	1.1904	9.5746	3.8892	0.7031	16.5200 
1220.115	-0.0283	0.3047	1.1504	9.5087	3.6420	1.3074	16.5400 
1220.115	0.0371	0.0723	0.9727	9.3329	3.1970	2.3621	16.5300 
1220.116	0.0396	0.0625	0.8486	9.0582	2.8894	3.1860	16.5500 
1220.116	-0.0039	0.1821	0.8130	8.8770	2.7850	3.6090	16.5300 
1220.116	-0.0181	0.2070	0.7705	8.7561	2.6477	3.9880	16.5300 
1220.141	-0.0186	0.1958	0.7808	8.6133	2.4939	4.4495	16.5300 
1220.162	-0.0146	0.1865	0.8130	8.4595	2.3401	4.8834	16.5400 
1220.182	0.0171	0.2505	0.8604	8.2947	2.1753	5.1965	16.5100 
1220.198	0.0400	0.2144	0.8965	8.0859	1.9611	5.5481	16.5300 
1220.214	0.0439	0.1719	0.9316	7.8442	1.7798	5.8282	16.5200 
1220.334	0.0352	0.2227	0.9507	7.7014	1.6864	5.8997	16.5200 
1220.362	0.0229	0.2822	0.9536	7.6959	1.6425	5.8942	16.5300 
1220.362	0.0176	0.2676	0.9551	7.6959	1.5820	5.9601	16.5100 
1220.363	-0.0044	0.2207	1.0171	7.6410	1.5216	6.0205	16.5400 
1220.363	-0.0127	0.2329	1.0439	7.5806	1.4612	5.9656	16.5200 
1220.363	0.0063	0.2959	1.0962	7.6135	1.3568	5.8118	16.5100 
1220.363	0.0205	0.2754	1.0776	7.6904	1.1536	5.7294	16.5300 
1220.363	-0.0083	0.2808	1.0708	7.8003	0.9888	5.6250	16.5200 
1220.380	-0.0220	0.3188	1.1187	7.9431	0.9064	5.4987	16.5400 
1220.403	0.0366	0.2578	1.2900	8.0255	0.8130	5.4987	16.5200 
1220.423	0.1152	0.2524	1.3306	8.0804	0.6097	5.5756	16.5200 
1220.440	0.1553	0.1553	1.2266	8.1848	0.3296	5.6415	16.5200 
1220.542	0.2026	0.1582	1.1470	8.2727	0.1758	5.6415	16.5300 
1220.560	0.2153	0.0864	0.9932	8.3496	0.0989	5.7074	16.5300 
1220.561	0.1934	-0.0522	1.0103	8.2727	0.1099	5.7898	16.5400 
1220.561	0.1416	-0.0229	1.1133	8.1189	0.2692	5.4492	16.5300 
1220.561	0.0566	0.0039	1.2090	8.0090	0.5493	4.7351	16.5300 
1220.561	-0.0229	0.0620	1.2095	7.9651	0.7800	3.9441	16.5200 
1220.581	-0.0161	0.1328	1.1196	7.9761	0.9558	3.2300	16.5100 
1220.603	0.0444	0.0918	0.9434	7.9816	1.0272	2.7740	16.5200 
1220.623	0.0776	0.0435	0.8018	7.9541	1.0712	2.4884	16.5200 
1220.649	0.0874	0.0737	0.8071	7.9321	1.2854	2.1204	16.5100 
1220.751	0.0981	0.1147	0.8140	7.9211	1.5546	1.6150	16.5200 
1220.761	0.0791	0.0801	0.8369	7.8772	1.8073	1.0767	16.5100 
1220.762	0.0645	0.1162	0.8770	7.8497	2.0984	0.4724	16.5200 
1220.762	0.0571	0.1196	0.9023	7.8607	2.3566	-0.0110	16.5100 
1220.762	0.0591	0.0781	0.9438	7.8278	2.5104	-0.3351	16.5000 
1220.762	0.0713	0.1440	0.9565	7.8223	2.6202	-0.7141	16.5400 
1220.779	0.0933	0.2197	0.9551	7.8772	2.7356	-1.1481	16.5200 
1220.799	0.0991	0.2188	0.9844	7.9431	2.8290	-1.4722	16.5200 
1220.820	0.1016	0.2183	0.9932	8.0200	2.9279	-1.7249	16.5100 
1220.841	0.0972	0.2559	1.0098	8.1573	3.0652	-1.9666	16.5100 
1220.857	0.0522	0.2236	1.0815	8.2947	3.2190	-2.0984	16.5200 
1220.976	0.0508	0.2329	1.0923	8.3990	3.3508	-2.1863	16.5200 
1220.996	0.1055	0.3325	1.0396	8.5419	3.4387	-2.2302	16.5200 
1220.996	0.1440	0.3154	1.0015	8.6792	3.4442	-2.1204	16.5200 
1220.996	0.0947	0.1831	0.9624	8.7616	3.4607	-1.9830	16.5300 
1220.996	0.0024	0.1650	1.0034	8.8605	3.6530	-1.9995	16.5200 
1220.996	-0.1929	0.1099	1.2397	9.0582	3.9331	-1.9171	16.5200 
1221.015	-0.1938	0.1401	1.2622	9.3109	4.0540	-1.5820	16.5100 
1221.038	-0.1147	0.1235	1.0229	9.5636	3.9166	-1.0327	16.5100 
1221.039	-0.1431	0.0107	1.0649	9.6844	3.9221	-0.5383	16.5100 
1221.060	-0.1504	0.1709	1.1050	9.6899	4.1858	-0.5548	16.5000 
1221.078	-0.1772	0.1372	1.1411	9.6460	4.4714	-0.5109	16.5200 
1221.189	-0.2173	0.0767	1.3188	9.5251	4.7186	-0.4504	16.5100 
1221.214	-0.1167	0.3057	1.2817	9.4592	4.8010	-0.4559	16.5100 
1221.215	-0.0430	0.1709	1.0820	9.4208	4.4659	0.0439	16.5100 
1221.215	-0.0322	0.1167	1.0020	9.2725	4.1089	0.6262	16.5100 
1221.215	-0.0386	0.2192	0.8901	9.1351	3.8727	1.0876	16.5400 
1221.215	-0.0332	0.1377	0.7974	8.9429	3.5431	1.7523	16.5100 
1221.236	-0.0313	0.0693	0.7212	8.6462	3.2025	2.3785	16.5100 
1221.249	-0.0146	0.1973	0.7495	8.4045	2.9773	2.7795	16.5100 
1221.276	0.0151	0.1992	0.7715	8.1793	2.7026	3.2520	16.5100 
1221.277	0.0132	0.0996	0.7935	7.8827	2.3730	3.8232	16.5100 
1221.297	-0.0083	0.1846	0.9253	7.5970	2.2192	4.1199	16.5100 
1221.420	0.0020	0.2046	0.9736	7.3993	2.0544	4.3396	16.4900 
1221.427	0.0176	0.1719	0.9263	7.2290	1.8512	4.5813	16.4900 
1221.427	0.0068	0.2104	0.9136	7.1301	1.7358	4.7131	16.4900 
1221.427	-0.0112	0.2466	0.9668	7.1191	1.6974	4.8010	16.5000 
1221.428	-0.0156	0.2202	1.0142	7.1082	1.6095	4.9603	16.5000 
1221.428	0.0034	0.2773	1.0874	7.1191	1.4777	5.0977	16.5000 
1221.454	0.0356	0.3091	1.0859	7.2125	1.2579	5.2460	16.4900 
1221.469	0.0547	0.2734	1.0615	7.3279	0.9943	5.4712	16.4800 
1221.602	0.0542	0.3232	1.0435	7.4762	0.7526	5.6085	16.5100 
1221.603	0.0557	0.3281	1.1313	7.6465	0.5713	5.7294	16.5100 
1221.625	0.1001	0.2622	1.2690	7.7673	0.3680	5.9711	16.4800 
1221.625	0.1973	0.2563	1.1797	7.8882	0.0330	6.1743	16.4800 
1221.625	0.1865	0.1890	1.1636	8.0365	-0.2417	6.3391	16.5000 
1221.625	0.2427	0.1089	1.1582	8.0804	-0.3406	6.5149	16.4900 
1221.625	0.2573	0.0225	1.1567	8.0145	-0.3735	6.8390	16.5000 
1221.625	0.2148	-0.1533	1.1665	7.8058	-0.3461	7.1576	16.4800 
1221.651	0.1406	-0.1729	1.1294	7.5476	-0.2307	7.0697	16.4900 
1221.769	-0.0313	0.0249	1.2803	7.4158	0.2527	6.1194	16.4800 
1221.792	-0.0532	0.1450	1.2588	7.4048	0.7031	5.0922	16.4800 
1221.792	0.0029	0.1807	1.0840	7.3938	0.8679	4.5044	16.4800 
1221.792	0.0967	0.0972	0.8413	7.3773	0.8679	4.3011	16.4800 
1221.792	0.1172	0.0049	0.7329	7.3114	0.9338	4.2297	16.4900 
1221.792	0.0903	0.0190	0.7480	7.2510	1.2360	3.8782	16.5000 
1221.792	0.0518	0.0464	0.7813	7.2675	1.6534	3.2080	16.4800 
1221.792	0.0244	0.1099	0.8105	7.3663	2.0709	2.4829	16.4900 
1221.811	0.0283	0.1138	0.8228	7.4432	2.4335	1.9391	16.4900 
1221.829	0.0664	0.1040	0.9053	7.4323	2.7081	1.6040	16.5000 
1221.850	0.0884	0.0923	0.9453	7.3773	2.8619	1.4063	16.4900 
1221.871	0.1172	0.1313	0.9829	7.3718	2.9608	1.1646	16.5000 
1221.969	0.1196	0.2070	1.0073	7.4213	3.0707	0.8240	16.4900 
1221.978	0.1274	0.2676	1.0479	7.5146	3.1696	0.5823	16.4900 
1221.978	0.1172	0.2095	1.0381	7.6025	3.2080	0.5493	16.4900 
1221.978	0.0781	0.2129	1.0835	7.6465	3.3398	0.5438	16.4800 
1221.978	0.0527	0.2354	1.1113	7.6959	3.5321	0.5493	16.4900 
1221.996	0.0459	0.2031	1.0947	7.7289	3.6914	0.6757	16.4900 
1222.010	0.1089	0.3164	1.0464	7.7893	3.8672	0.7251	16.4900 
1222.029	0.1895	0.3101	1.0122	7.8882	3.9825	0.9119	16.4900 
1222.049	0.1055	0.1006	0.9888	7.9431	4.0540	1.2689	16.5100 
1222.069	-0.1323	0.0630	1.2202	8.0585	4.4165	1.2140	16.5200 
1222.089	-0.1782	0.1812	1.3013	8.3386	4.7736	0.9998	16.5200 
1222.156	-0.1187	0.2769	1.0645	8.7616	4.7516	1.0162	16.5200 
1222.188	-0.1348	0.0562	1.0278	8.9978	4.5978	1.3293	16.5100 
1222.188	-0.1934	0.1118	1.0156	8.9484	4.7186	1.0327	16.5100 
1222.188	-0.2266	0.2041	1.1431	8.8605	5.0702	0.4669	16.5200 
1222.208	-0.2432	-0.0078	1.2354	8.7067	5.2625	0.2252	16.5100 
1222.230	-0.1636	0.1206	1.2334	8.5144	5.3284	-0.0714	16.5100 
1222.230	-0.0869	0.1973	1.1514	8.4100	5.1965	-0.1758	16.5100 
1222.247	-0.0430	0.1182	1.0088	8.2892	4.9054	0.0439	16.5100 
1222.267	-0.0049	0.1216	0.8716	8.1464	4.6692	0.3021	16.5200 
1222.378	-0.0117	0.1260	0.8359	8.0365	4.4604	0.5054	16.5000 
1222.396	-0.0083	0.1890	0.8262	7.9211	4.2682	0.5768	16.5100 
1222.397	0.0049	0.1880	0.7651	7.8113	4.0155	0.6097	16.4900 
1222.397	-0.0117	0.1255	0.7573	7.6410	3.7903	0.6262	16.5100 
1222.397	-0.0430	0.1289	0.8101	7.4432	3.6694	0.4889	16.5100 
1222.397	-0.0615	0.1353	0.9336	7.2290	3.5980	0.2747	16.5100 
1222.413	-0.0557	0.1187	0.9219	7.0093	3.4882	0.0879	16.5200 
1222.428	-0.0474	0.1987	0.9492	6.8884	3.4167	-0.1373	16.5100 
1222.452	-0.0430	0.2393	0.9429	6.8829	3.3618	-0.3461	16.5100 
1222.469	-0.0391	0.2363	0.9648	6.8884	3.3398	-0.4395	16.5100 
1222.490	-0.0278	0.2773	0.9785	6.8939	3.3563	-0.5438	16.5100 
1222.584	-0.0225	0.2827	1.0078	6.9159	3.3673	-0.6537	16.5200 
1222.594	-0.0288	0.2378	1.0249	6.9379	3.3563	-0.7526	16.5100 
1222.594	-0.0571	0.2368	1.0376	6.9928	3.3838	-0.9174	16.5100 
1222.594	-0.0957	0.2681	1.0571	7.1082	3.4277	-1.0931	16.5200 
1222.595	-0.0977	0.2832	1.0601	7.2345	3.4003	-1.1481	16.5200 
1222.627	-0.0234	0.3345	1.1626	7.3444	3.2794	-1.0162	16.5100 
1222.647	0.0537	0.2949	1.3340	7.4213	3.0322	-0.5109	16.5200 
1222.647	0.1333	0.2002	1.2222	7.5037	2.5488	0.2362	16.5100 
1222.668	0.1538	0.1567	1.1289	7.5476	2.1533	0.9283	16.5100 
1222.691	0.1519	0.0410	1.0938	7.4652	1.9720	1.6150	16.5200 
1222.800	0.1118	-0.0820	1.1338	7.1851	1.9995	2.2028	16.5200 
1222.808	0.0981	-0.0986	1.1812	6.8555	2.1533	2.2797	16.5100 
1222.808	0.0322	-0.0806	1.2739	6.6412	2.4060	1.9281	16.5300 
1222.808	-0.0464	0.0396	1.3140	6.5588	2.6971	1.2744	16.5100 
1222.808	-0.0376	0.1245	1.1753	6.5259	2.8674	0.6647	16.5200 
1222.808	-0.0151	0.0542	0.9897	6.4545	2.9388	0.3735	16.5100 
1222.827	0.0005	0.0024	0.8872	6.3556	3.0487	0.1703	16.5200 
1222.847	0.0557	0.1060	0.8223	6.3336	3.2465	-0.0769	16.5100 
1222.868	0.0645	0.0854	0.8120	6.3336	3.4332	-0.2197	16.5200 
1222.886	0.0454	0.0181	0.8115	6.2512	3.6090	-0.3845	16.5200 
1222.908	0.0308	0.0811	0.8364	6.1963	3.8342	-0.7635	16.5100 
1223.025	0.0093	0.0991	0.8325	6.1853	4.0210	-1.1041	16.5200 
1223.044	0.0186	0.0859	0.8931	6.1469	4.1638	-1.2634	16.5300 
1223.044	0.0562	0.1079	0.8984	6.0974	4.2023	-1.2689	16.5200 
1223.044	0.0718	0.1392	0.9033	6.0864	4.2023	-1.2415	16.5300 
1223.044	0.0889	0.1919	0.9580	6.1359	4.2078	-1.2030	16.5300 
1223.044	0.0898	0.1870	0.9946	6.2457	4.2078	-1.0822	16.5300 
1223.044	0.0649	0.1572	1.0244	6.3995	4.2297	-0.9009	16.5300 
1223.064	0.0317	0.1597	1.0801	6.5863	4.3396	-0.7471	16.5300 
1223.084	0.0527	0.2344	1.0703	6.8225	4.4495	-0.5878	16.5300 
1223.105	0.1152	0.2954	1.0459	7.0862	4.5154	-0.3351	16.5200 
1223.125	0.1655	0.2236	1.0229	7.3499	4.5209	0.0824	16.5200 
1223.232	0.1016	0.1392	1.0098	7.5970	4.5319	0.4889	16.5400 
1223.243	-0.1372	0.0459	1.3213	7.8772	4.8065	0.6097	16.5400 
1223.244	-0.1855	0.1978	1.3857	8.2672	5.1141	0.5054	16.5300 
1223.244	-0.1431	0.2646	1.1787	8.7781	5.0922	0.5548	16.5400 
1223.244	-0.1865	-0.0308	1.0176	9.0692	4.9438	0.8679	16.5300 
1223.244	-0.2690	0.1128	1.1216	9.1296	5.2734	0.5219	16.5400 
1223.262	-0.2817	0.2061	1.2017	9.2285	5.6360	0.2637	16.5400 
1223.283	-0.2412	-0.0088	1.2397	9.1846	5.6250	0.5933	16.5200 
1223.304	-0.1357	0.1553	1.2026	9.0802	5.5206	0.8514	16.5400 
1223.325	-0.0342	0.2134	1.0176	9.1132	5.2625	1.3403	16.5300 
1223.343	0.0005	0.1260	0.8940	9.1187	4.8669	2.0709	16.5100 
1223.444	0.0166	0.1533	0.8237	9.0308	4.6362	2.6202	16.5500 
1223.460	0.0054	0.1289	0.7588	8.8934	4.4604	3.0377	16.5400 
1223.460	-0.0156	0.0996	0.7275	8.6627	4.3286	3.3124	16.5500 
1223.461	-0.0430	0.1602	0.7803	8.4650	4.2627	3.3563	16.5300 
1223.461	-0.0537	0.2100	0.8120	8.3386	4.1748	3.3563	16.5400 
1223.461	-0.0376	0.2100	0.8091	8.2397	3.9825	3.4772	16.5400 
1223.481	-0.0332	0.1807	0.8691	8.1299	3.7518	3.6804	16.5400 
1223.502	-0.0283	0.1597	0.9102	7.9761	3.5156	3.7848	16.5400 
1223.522	-0.0269	0.2129	0.9365	7.8442	3.3508	3.6694	16.5400 
1223.542	-0.0137	0.2974	0.9512	7.8168	3.2135	3.5321	16.5600 
1223.653	-0.0103	0.2671	0.9756	7.7948	3.0652	3.5486	16.5400 
1223.678	-0.0195	0.2485	1.0142	7.7563	2.9169	3.5321	16.5400 
1223.678	-0.0181	0.3022	1.0479	7.7728	2.7740	3.3893	16.5500 
1223.678	-0.0317	0.2617	1.1182	7.8278	2.5653	3.3508	16.5500 
1223.680	-0.0410	0.2080	1.0718	7.8882	2.3016	3.3728	16.5500 
1223.680	-0.0332	0.3398	1.0713	8.0475	2.0874	3.3014	16.5600 
1223.702	0.0054	0.3442	1.0752	8.2727	1.7908	3.4003	16.5600 
1223.721	0.1172	0.2583	1.2231	8.4650	1.4282	3.7189	16.5400 
1223.721	0.1816	0.2476	1.2402	8.6572	1.0382	4.0485	16.5500 
1223.742	0.1929	0.1597	1.0815	8.8660	0.6702	4.3066	16.5500 
1223.762	0.2173	0.1348	1.1362	9.0033	0.4834	4.5209	16.5500 
1223.859	0.2197	-0.0117	1.2720	8.9978	0.3955	5.0153	16.5600 
1223.878	0.1807	-0.1777	1.2207	8.8275	0.2472	5.4547	16.5500 
1223.879	0.1074	0.0298	1.2939	8.6847	0.3296	5.0482	16.5600 
1223.879	0.0151	0.1133	1.3198	8.6572	0.5988	4.2902	16.5700 
1223.879	-0.0415	0.0796	1.1982	8.6023	0.8130	3.7189	16.5800 
1223.898	0.0161	0.1357	1.0151	8.5638	0.9448	3.2080	16.5700 
1223.916	0.0601	0.1279	0.8022	8.5748	1.0876	2.8729	16.5500 
1223.940	0.0591	0.0430	0.7051	8.5364	1.2799	2.6807	16.5500 
1223.941	0.0469	0.0938	0.7393	8.4705	1.6754	2.3016	16.5400 
1223.961	0.0342	0.1177	0.7739	8.4320	2.1313	1.7798	16.5400 
1224.078	0.0308	0.0947	0.8022	8.3661	2.5049	1.3403	16.5500 
1224.094	0.0317	0.0991	0.8140	8.2837	2.8235	0.9338	16.5500 
1224.094	0.0464	0.1050	0.9058	8.1958	3.1421	0.6097	16.5600 
1224.094	0.0815	0.1440	0.9800	8.0640	3.4058	0.3625	16.5400 
1224.094	0.1064	0.1606	1.0049	7.9321	3.5156	0.1868	16.5300 
1224.094	0.1221	0.2007	1.0234	7.8607	3.5541	0.0275	16.5600 
1224.112	0.1152	0.2119	1.0444	7.8717	3.5706	-0.0659	16.5400 
1224.138	0.0742	0.1367	1.0181	7.9156	3.5815	-0.0220	16.5400 
1224.157	-0.0122	0.1772	1.1055	8.0035	3.7738	-0.0934	16.5400 
1224.178	0.0107	0.2847	1.1079	8.1683	3.9771	-0.2142	16.5400 
1224.179	0.1475	0.3022	1.0527	8.3606	4.0045	-0.0439	16.5500 
1224.285	0.2012	0.2383	0.9985	8.5309	3.9221	0.2856	16.5500 
1224.313	0.1685	0.1987	0.9961	8.7231	3.9661	0.4559	16.5400 
1224.313	-0.0908	0.0718	1.2681	9.0033	4.2737	0.3845	16.5400 
1224.313	-0.1377	0.2075	1.2144	9.4208	4.5593	-0.0439	16.5400 
1224.313	-0.1880	0.1934	0.9692	9.8932	4.6472	-0.2527	16.5500 
1224.313	-0.2573	-0.0854	0.9590	10.0470	4.8010	-0.3241	16.5500 
1224.334	-0.3008	0.1514	1.1328	10.0305	5.2460	-0.8734	16.5400 
1224.356	-0.2783	0.2061	1.2495	9.9976	5.4877	-1.0327	16.5700 
1224.376	-0.1699	0.0503	1.3027	9.8657	5.4272	-0.7855	16.5500 
1224.376	-0.0635	0.2314	1.2529	9.7723	5.2844	-0.6866	16.5400 
1224.398	0.0137	0.3062	1.0938	9.7833	5.0153	-0.3845	16.5600 
1224.506	0.0161	0.1445	0.9634	9.7064	4.6582	0.2197	16.5600 
1224.528	-0.0215	0.0718	0.7798	9.5197	4.4604	0.5548	16.5500 
1224.529	-0.0557	0.1836	0.8003	9.3713	4.4824	0.5438	16.5400 
1224.529	-0.0581	0.1670	0.8154	9.2395	4.3890	0.6592	16.5600 
1224.529	-0.0337	0.1270	0.7402	9.0527	4.1638	0.8350	16.5400 
1224.529	0.0039	0.2388	0.7710	8.9264	4.0045	0.8789	16.5500 
1224.552	0.0142	0.2373	0.8008	8.8220	3.8232	0.9558	16.5400 
1224.574	-0.0024	0.1519	0.8809	8.5693	3.6859	1.0052	16.5400 
1224.594	-0.0249	0.1582	0.9365	8.3057	3.6694	0.8185	16.5400 
1224.608	-0.0415	0.2402	0.9688	8.1958	3.7189	0.3955	16.5300 
1224.719	-0.0371	0.2969	0.9551	8.2013	3.7738	-0.0659	16.5600 
1224.727	-0.0288	0.3276	0.9443	8.2452	3.8068	-0.4614	16.5500 
1224.727	-0.0469	0.3174	0.9897	8.2617	3.8397	-0.7745	16.5400 
1224.727	-0.0684	0.2803	1.0986	8.2178	3.8837	-1.0217	16.5400 
1224.727	-0.0884	0.2285	1.0928	8.1573	3.8727	-1.2195	16.5400 
1224.727	-0.1260	0.2402	1.0796	8.1464	3.8672	-1.4502	16.5500 
1224.752	-0.1318	0.2778	1.1221	8.2013	3.8672	-1.6205	16.5500 
1224.772	-0.0425	0.3018	1.2480	8.2452	3.7573	-1.5765	16.5400 
1224.794	0.0396	0.2813	1.3364	8.3057	3.4772	-1.2250	16.5500 
1224.794	0.0488	0.1626	1.1865	8.4375	2.9938	-0.6592	16.5400 
1224.816	0.0869	0.1323	1.0957	8.5034	2.5928	-0.1428	16.5500 
1224.831	0.1475	0.1138	1.0366	8.4979	2.3401	0.3845	16.5500 
1224.851	0.1436	-0.0239	1.0430	8.3661	2.1423	1.0602	16.5500 
1224.965	0.1157	-0.1128	1.1704	8.0750	2.0764	1.3898	16.5500 
1224.980	0.0479	-0.0498	1.2764	7.8168	2.1863	1.1261	16.5600 
1224.980	-0.0244	0.0850	1.2559	7.7289	2.3291	0.5933	16.5500 
1224.980	-0.0239	0.1230	1.1265	7.7234	2.3566	0.1758	16.5500 
1224.980	-0.0059	0.0615	0.9263	7.6959	2.3346	0.0330	16.5500 
1224.980	0.0186	0.0732	0.8306	7.6520	2.4225	-0.0769	16.5500 
1224.995	0.0430	0.0698	0.7729	7.6575	2.6147	-0.1648	16.5400 
1225.009	0.0371	0.0396	0.7451	7.6575	2.8070	-0.2527	16.5600 
1225.123	0.0249	0.1455	0.8198	7.6849	3.0872	-0.6042	16.5500 
1225.146	0.0435	0.1714	0.8530	7.7838	3.3344	-0.9668	16.5600 
1225.146	0.0610	0.0957	0.8760	7.8058	3.4387	-1.0986	16.5400 
1225.146	0.0713	0.1128	0.9658	7.7618	3.5651	-1.2140	16.5600 
1225.146	0.0732	0.1328	1.0024	7.7014	3.6749	-1.3678	16.5500 
1225.146	0.0908	0.1631	0.9907	7.6740	3.7134	-1.4996	16.5600 
1225.168	0.1069	0.2368	1.0273	7.7234	3.7793	-1.6260	16.5500 
1225.190	0.1099	0.2100	1.0283	7.8113	3.7628	-1.5271	16.5600 
1225.213	0.0874	0.1401	1.0254	7.8882	3.7408	-1.3019	16.5600 
1225.214	0.0410	0.2065	1.1162	7.9926	3.8837	-1.2360	16.5700 
1225.234	0.0610	0.2983	1.1108	8.1464	4.0375	-1.1920	16.5600 
1225.340	0.1250	0.2588	1.0581	8.3057	4.1034	-0.8899	16.5600 
1225.369	0.1172	0.1797	1.0308	8.4210	4.1803	-0.5219	16.5500 
1225.369	0.0527	0.2476	1.0459	8.6353	4.4275	-0.3790	16.5600 
1225.369	-0.0483	0.1582	1.1514	8.9429	4.7241	-0.1154	16.5500 
1225.369	-0.1245	0.1670	1.1743	9.3219	5.0043	0.0769	16.5600 
1225.369	-0.1021	0.3101	1.0889	9.8108	5.2130	0.2087	16.5700 
1225.387	-0.2222	-0.0396	0.8921	10.1514	5.3613	0.5548	16.5400 
1225.412	-0.3042	0.0278	0.9873	10.3162	5.8722	0.3461	16.5600 
1225.412	-0.3291	0.2725	1.2368	10.4150	6.4050	0.1208	16.5500 
1225.428	-0.3042	0.0605	1.3062	10.3931	6.4929	0.4999	16.5400 
1225.453	-0.1367	0.2500	1.3057	10.2722	6.3776	0.8075	16.5400 
1225.550	-0.0444	0.3906	1.2085	10.2832	6.0974	1.1975	16.5500 
1225.559	0.0371	0.1846	0.9380	10.2832	5.5426	2.0874	16.5600 
1225.559	0.0171	0.0986	0.7861	10.1349	5.0922	2.8839	16.5400 
1225.559	-0.0508	0.1895	0.7505	9.9481	4.9054	3.1696	16.5400 
1225.559	-0.0747	0.2222	0.7285	9.8218	4.7571	3.2849	16.5400 
1225.586	-0.0625	0.1411	0.7012	9.6844	4.4824	3.5211	16.5500 
1225.606	-0.0386	0.1538	0.7412	9.5142	4.1913	3.7079	16.5400 
1225.629	-0.0186	0.2314	0.8188	9.4098	3.8837	3.8177	16.5300 
1225.629	-0.0190	0.1968	0.8906	9.2670	3.5486	4.0045	16.5300 
1225.649	0.0112	0.2114	0.9707	9.0637	3.2574	4.0924	16.5400 
1225.750	0.0308	0.2729	0.9839	8.9594	3.0377	4.0320	16.5300 
1225.760	0.0215	0.2378	0.9463	8.9758	2.8125	4.0320	16.5200 
1225.760	-0.0049	0.2319	0.9458	9.0033	2.6752	3.9661	16.5200 
1225.760	-0.0146	0.3506	1.0098	9.0582	2.6367	3.7628	16.5300 
1225.760	-0.0034	0.3330	1.0483	9.0967	2.4994	3.6859	16.5300 
1225.785	0.0166	0.2686	1.0879	9.0527	2.2467	3.7079	16.5100 
1225.806	0.0063	0.3213	1.1050	9.0527	2.0325	3.5925	16.5200 
1225.829	-0.0366	0.3252	1.0981	9.1461	1.8677	3.4827	16.5200 
1225.830	-0.0327	0.2979	1.1328	9.2450	1.7139	3.4772	16.5100 
1225.850	0.0576	0.3159	1.3516	9.3164	1.5875	3.5760	16.5300 
1225.948	0.1411	0.3184	1.3364	9.3933	1.3184	3.8562	16.5300 
1225.961	0.1973	0.1157	1.1714	9.4592	0.9009	4.3781	16.5100 
1225.961	0.2373	0.1479	1.0488	9.4867	0.6207	4.7241	16.5000 
1225.962	0.2275	0.1426	1.0103	9.5361	0.5878	4.8944	16.5100 
1225.962	0.1577	-0.1055	1.0874	9.3878	0.6866	5.1361	16.5300 
1225.985	0.1333	-0.0732	1.1475	9.1626	0.9723	4.8669	16.5300 
1226.005	0.0679	0.0933	1.2617	9.0527	1.3898	4.1528	16.5100 
1226.027	0.0259	0.0825	1.1909	8.9978	1.6534	3.5266	16.5100 
1226.041	-0.0171	0.0898	1.0576	8.9374	1.9171	2.9663	16.5200 
1226.153	-0.0083	0.0786	0.9702	8.8715	2.1863	2.5378	16.5100 
1226.183	0.0366	0.1021	0.8140	8.8605	2.4170	2.1973	16.5300 
1226.183	0.0615	0.1079	0.7856	8.8550	2.6477	1.9391	16.5200 
1226.183	0.0757	0.0757	0.7866	8.7781	2.8674	1.6809	16.5100 
1226.183	0.0532	0.0732	0.8096	8.6682	3.1531	1.2799	16.5100 
1226.183	0.0366	0.1445	0.8408	8.5968	3.4827	0.7581	16.5100 
1226.183	0.0361	0.1182	0.8794	8.4979	3.7518	0.3955	16.5300 
1226.204	0.0454	0.0698	0.9312	8.3167	3.9441	0.2142	16.5200 
1226.224	0.0474	0.1157	0.9502	8.1683	4.1144	-0.0110	16.5300 
1226.244	0.0566	0.1729	0.9893	8.1244	4.2517	-0.2197	16.5100 
1226.244	0.0649	0.1846	1.0059	8.1189	4.3341	-0.3351	16.5400 
1226.263	0.0781	0.2319	1.0249	8.1738	4.4000	-0.3900	16.5300 
1226.363	0.0713	0.2012	1.0313	8.2727	4.4550	-0.3021	16.5300 
1226.377	0.0376	0.1733	1.0864	8.3606	4.5428	-0.1263	16.5300 
1226.377	0.0352	0.2324	1.1021	8.4650	4.6362	-0.0110	16.5400 
1226.377	0.1221	0.3311	1.0649	8.6517	4.6582	0.1813	16.5400 
1226.377	0.1704	0.2710	0.9956	8.8385	4.5703	0.5328	16.5400 
1226.403	0.1177	0.1934	0.9780	9.0308	4.5538	0.8405	16.5200 
1226.403	-0.0337	0.1030	1.1328	9.2725	4.7516	1.0437	16.5400 
1226.423	-0.1948	0.1533	1.3599	9.5691	5.1306	1.0931	16.5400 
1226.444	-0.1265	0.3872	1.1689	9.9756	5.3174	1.0876	16.5500 
1226.464	-0.1484	0.0034	0.9663	10.3107	5.2515	1.5875	16.5400 
1226.480	-0.1914	0.0205	0.9170	10.3711	5.4272	1.6095	16.5400 
1226.587	-0.2324	0.2588	1.1270	10.4041	5.8722	1.3513	16.5400 
1226.618	-0.2700	-0.0493	1.1758	10.2942	5.9821	1.6370	16.5400 
1226.618	-0.1714	0.2021	1.2856	10.0470	6.0919	1.6205	16.5500 
1226.618	-0.1055	0.3999	1.2671	9.9646	6.0809	1.5765	16.5400 
1226.618	-0.0166	0.1104	0.9756	9.9426	5.6195	2.2906	16.5300 
1226.618	-0.0059	0.0957	0.8892	9.7888	5.2405	2.9608	16.5500 
1226.640	-0.0283	0.2373	0.8403	9.6185	5.0977	3.1476	16.5600 
1226.661	-0.0322	0.2075	0.7979	9.4318	4.9274	3.3618	16.5500 
1226.676	-0.0239	0.1152	0.7598	9.1571	4.6527	3.6310	16.5500 
1226.703	-0.0205	0.1587	0.7773	8.8824	4.4275	3.6804	16.5500 
1226.703	-0.0195	0.1973	0.7695	8.6902	4.2352	3.5870	16.5500 
1226.830	-0.0288	0.1870	0.8423	8.5034	4.0649	3.5486	16.5700 
1226.840	-0.0332	0.1724	0.9170	8.2782	3.9276	3.5321	16.5600 
1226.841	-0.0352	0.1772	0.9336	8.0695	3.8013	3.4772	16.5500 
1226.841	-0.0366	0.2036	0.9419	7.9431	3.7244	3.3453	16.5600 
1226.841	-0.0278	0.2617	0.9473	7.8772	3.6859	3.1586	16.5700 
1226.841	-0.0200	0.2793	0.9648	7.8497	3.6310	3.0103	16.5600 
1226.841	-0.0229	0.2715	1.0151	7.8168	3.5486	2.9114	16.5600 
1226.859	-0.0269	0.2524	1.0591	7.7563	3.4552	2.8455	16.5500 
1226.878	-0.0400	0.2437	1.0928	7.7399	3.3398	2.7631	16.5700 
1226.994	-0.0366	0.2856	1.0767	7.7948	3.1750	2.6312	16.5500 
1227.011	-0.0205	0.3276	1.0356	7.8992	2.9443	2.5708	16.5700 
1227.011	0.0132	0.3286	1.0483	8.0145	2.6477	2.6202	16.5700 
1227.011	0.0884	0.2720	1.2012	8.1299	2.2906	2.8015	16.5800 
1227.011	0.1128	0.2212	1.2441	8.3112	1.8292	3.1091	16.5700 
1227.011	0.1343	0.1514	1.1284	8.4979	1.3623	3.3179	16.5700 
1227.039	0.1938	0.1953	1.1421	8.6243	1.0931	3.4442	16.5600 
1227.058	0.2197	0.0317	1.1694	8.5803	0.8734	3.8947	16.5900 
1227.072	0.2041	-0.1284	1.1968	8.3167	0.7361	4.3945	16.5900 
1227.093	0.1011	-0.0869	1.2451	8.0365	0.8295	4.1528	16.5900 
1227.210	-0.0166	0.0327	1.3862	7.8937	1.1865	3.3948	16.5800 
1227.228	-0.0386	0.2109	1.1616	7.9102	1.4227	2.5928	16.5800 
1227.228	-0.0005	0.2251	0.9551	7.9816	1.5271	2.0929	16.5500 
1227.228	0.0205	0.0747	0.7163	7.9816	1.6315	1.9171	16.5700 
1227.228	0.0229	0.0430	0.6489	7.9211	1.9171	1.6699	16.5700 
1227.228	0.0112	0.0981	0.7368	7.8607	2.4115	1.2305	16.5800 
1227.228	0.0190	0.1021	0.8071	7.8113	2.8619	0.8130	16.5800 
1227.248	0.0474	0.1006	0.8330	7.7618	3.2135	0.4230	16.5900 
1227.280	0.0679	0.1348	0.8965	7.7069	3.5211	0.0330	16.5700 
1227.280	0.0737	0.1411	0.9570	7.5970	3.7518	-0.2362	16.5800 
1227.295	0.0610	0.0703	0.9814	7.4048	3.8672	-0.3241	16.6000 
1227.315	0.0483	0.1162	1.0166	7.2345	3.9331	-0.4834	16.5900 
1227.335	0.0527	0.2397	1.0337	7.2400	3.9606	-0.6757	16.6000 
1227.472	0.0415	0.1641	1.0278	7.3224	3.8672	-0.5109	16.5800 
1227.489	0.0444	0.1606	1.0205	7.3883	3.7518	-0.1868	16.5800 
1227.489	0.0464	0.2490	1.1128	7.5092	3.7299	0.1099	16.5800 
1227.489	0.0776	0.2373	1.1001	7.6300	3.6420	0.5328	16.5800 
1227.489	0.1670	0.3032	1.0640	7.7344	3.5760	0.9393	16.5900 
1227.489	0.1953	0.2969	1.0356	7.8607	3.5486	1.3403	16.5900 
1227.489	0.0308	0.0698	1.1660	7.9761	3.5706	1.7908	16.6000 
1227.516	-0.1475	0.0557	1.3975	8.1024	3.8562	2.0105	16.5900 
1227.628	-0.1460	0.3945	1.2793	8.3441	4.0979	1.8896	16.5900 
1227.628	-0.1318	0.2466	1.0737	8.6188	4.0485	2.0984	16.5900 
1227.642	-0.1738	-0.0698	0.8931	8.5474	4.0375	2.4554	16.6000 
1227.642	-0.2036	0.0854	1.0244	8.3826	4.3781	2.3785	16.5900 
1227.642	-0.2666	-0.0571	1.1904	8.1903	4.5813	2.5708	16.6000 
1227.642	-0.2065	0.0146	1.1733	7.9156	4.5593	2.7686	16.6000 
1227.642	-0.0688	0.2686	1.2061	7.7783	4.4550	3.0048	16.6100 
1227.672	-0.0034	0.1191	1.0605	7.7344	4.0485	3.7573	16.6000 
1227.700	0.0566	0.0669	0.9038	7.6520	3.5815	4.5978	16.6000 
1227.700	0.0298	0.1450	0.8701	7.5806	3.3398	5.0427	16.5800 
1227.715	-0.0098	0.1392	0.8232	7.4542	3.1750	5.2954	16.6000 
1227.732	-0.0313	0.1436	0.8247	7.2839	3.0872	5.4382	16.5900 
1227.753	-0.0210	0.1851	0.8403	7.1631	2.9993	5.5096	16.6000 
1227.884	0.0151	0.1899	0.7964	7.0807	2.8180	5.6195	16.5800 
1227.918	0.0356	0.1855	0.7876	6.9928	2.5983	5.6964	16.5800 
1227.918	0.0317	0.1577	0.8662	6.8390	2.4225	5.6854	16.5900 
1227.918	0.0005	0.1675	0.9048	6.6687	2.2961	5.5151	16.6000 
1227.918	-0.0425	0.1992	0.8882	6.5753	2.1698	5.2570	16.5800 
1227.918	-0.0576	0.2046	0.8867	6.5424	2.0490	5.0702	16.5900 
1227.918	-0.0762	0.1777	0.9731	6.5259	1.8951	5.0262	16.5900 
1227.927	-0.0713	0.2256	1.0635	6.5259	1.6589	5.0043	16.6000 
1228.025	-0.0190	0.2622	1.1128	6.5808	1.2524	5.0592	16.6100 
1228.044	0.0205	0.2402	1.1113	6.6577	0.8020	5.2130	16.6000 
1228.044	0.0195	0.2705	1.0977	6.7731	0.4724	5.3119	16.6000 
1228.044	0.0273	0.3057	1.1563	6.9049	0.2692	5.3888	16.6000 
1228.044	0.0625	0.1870	1.3242	6.9928	0.0824	5.6140	16.5900 
1228.044	0.1489	0.2490	1.4146	7.0752	-0.1099	5.7678	16.6000 
1228.062	0.2759	0.2329	1.3325	7.1686	-0.4230	6.0645	16.6000 
1228.075	0.2695	0.0566	1.2505	7.1466	-0.7086	6.6357	16.6100 
1228.093	0.2280	0.0127	1.1006	7.0532	-0.7965	7.0203	16.6100 
1228.114	0.2041	-0.0620	0.9790	6.9214	-0.7581	7.1960	16.6200 
1228.137	0.1045	-0.1626	1.0908	6.7017	-0.5328	7.2125	16.6000 
1228.234	0.0142	-0.0679	1.1787	6.5314	-0.1044	6.7511	16.6000 
1228.269	-0.0010	0.1299	1.1475	6.5259	0.2637	6.1029	16.6100 
1228.270	0.0479	0.1279	0.9873	6.5479	0.4285	5.7843	16.6100 
1228.270	0.1035	0.0088	0.8652	6.4764	0.5548	5.7404	16.6000 
1228.270	0.1143	0.0225	0.7935	6.3831	0.8185	5.5591	16.6000 
1228.270	0.1118	0.0615	0.7964	6.3281	1.2305	5.1910	16.6100 
1228.288	0.0825	-0.0054	0.8008	6.2732	1.6260	4.8395	16.6000 
1228.311	0.0225	0.0068	0.8687	6.2183	2.0654	4.2957	16.5900 
1228.331	0.0264	0.1089	0.9146	6.2457	2.5433	3.5486	16.6200 
1228.332	0.0649	0.1079	0.8940	6.3116	2.8400	3.1091	16.6100 
1228.425	0.0713	0.0386	0.9414	6.3281	3.0267	2.9773	16.6200 
1228.445	0.0669	0.1255	1.0259	6.3171	3.2135	2.7740	16.6100 
1228.446	0.0645	0.1831	1.0542	6.3831	3.3893	2.5433	16.6000 
1228.446	0.0703	0.1162	1.0464	6.4874	3.4442	2.5708	16.6200 
1228.446	0.0732	0.1509	1.0093	6.6357	3.4991	2.6093	16.6200 
1228.470	0.0620	0.2510	1.0059	6.9269	3.6145	2.5928	16.6100 
1228.470	0.0503	0.2373	1.0337	7.2565	3.7189	2.7246	16.6100 
1228.491	0.0776	0.2407	1.0469	7.5146	3.7903	2.9828	16.6100 
1228.511	0.1216	0.2803	1.0073	7.7783	3.8232	3.2245	16.6200 
1228.531	0.1445	0.2651	0.9683	8.0695	3.8232	3.4937	16.6300 
1228.639	0.0645	0.1777	1.0259	8.3661	3.8947	3.7299	16.6100 
1228.659	-0.0469	0.1357	1.1885	8.7067	4.0924	3.9056	16.6100 
1228.659	-0.1201	0.2202	1.3203	9.1406	4.2572	4.0869	16.6300 
1228.659	-0.0728	0.3037	1.0894	9.6899	4.1309	4.3671	16.6300 
1228.660	-0.1187	0.0332	1.0117	10.0580	4.0265	4.8395	16.6200 
1228.660	-0.1699	0.0552	1.0229	10.1788	4.2682	4.8120	16.6200 
1228.679	-0.1875	0.2349	1.2212	10.2338	4.6582	4.6033	16.6300 
1228.708	-0.1816	0.0879	1.2827	10.2008	4.7845	4.7955	16.6300 
1228.729	-0.0962	0.2114	1.1899	10.1294	4.7900	4.8889	16.6400 
1228.744	-0.0615	0.3232	1.1577	10.1678	4.7461	5.0153	16.6300 
1228.856	-0.0049	0.1724	0.9922	10.1514	4.5209	5.5646	16.6100 
1228.886	0.0142	0.1011	0.8325	10.0360	4.2792	6.1359	16.6100 
1228.886	0.0078	0.2207	0.7368	9.9426	4.2023	6.3446	16.6300 
1228.886	0.0039	0.2222	0.6978	9.8987	4.0924	6.5314	16.6300 
1228.886	0.0044	0.1514	0.7153	9.7559	3.9331	6.7511	16.6300 
1228.886	0.0156	0.2295	0.7451	9.6240	3.8068	6.7566	16.6300 
1228.886	-0.0112	0.2524	0.8252	9.4867	3.6804	6.6742	16.6100 
1228.906	-0.0078	0.2290	0.8701	9.2725	3.5541	6.6302	16.6200 
1228.928	-0.0264	0.1865	0.9507	8.9703	3.4882	6.5533	16.6000 
1228.928	-0.0337	0.1904	0.9302	8.7286	3.4387	6.3501	16.6300 
1228.949	-0.0415	0.2715	0.9116	8.6133	3.4387	6.0260	16.6100 
1228.965	-0.0405	0.2974	0.9595	8.5254	3.4552	5.7953	16.6000 
1228.985	-0.0342	0.2388	1.0376	8.3771	3.3838	5.7294	16.6300 
1229.085	-0.0498	0.2080	1.1313	8.2013	3.2794	5.7019	16.6300 
1229.092	-0.0576	0.3037	1.1865	8.1189	3.1696	5.5591	16.6200 
1229.092	-0.0405	0.3374	1.1074	8.1628	2.9608	5.5042	16.6300 
1229.092	-0.0220	0.2632	1.0732	8.2233	2.7191	5.6909	16.6300 
1229.092	-0.0073	0.2510	1.1665	8.2727	2.5488	5.9656	16.6400 
1229.111	0.0571	0.2651	1.2871	8.3496	2.3511	6.3611	16.6100 
1229.127	0.1270	0.2241	1.2100	8.4760	1.9556	6.8994	16.6300 
1229.148	0.2041	0.0869	1.0747	8.5419	1.5710	7.5256	16.6200 
1229.169	0.2417	0.0698	1.0703	8.5364	1.3788	8.0255	16.6200 
1229.184	0.2095	-0.0845	1.1343	8.4375	1.3568	8.4705	16.6500 
1229.203	0.1426	-0.1431	1.1792	8.2397	1.4392	8.6188	16.6400 
1229.313	-0.0142	-0.0215	1.3120	8.1189	1.7743	7.9980	16.6200 
1229.325	-0.0771	0.0869	1.3198	8.1134	2.1643	7.1246	16.6300 
1229.325	-0.0298	0.2065	1.1035	8.1738	2.3895	6.4764	16.6000 
1229.325	0.0425	0.1724	0.9668	8.2123	2.4774	6.2292	16.6400 
1229.326	0.0835	0.0278	0.7676	8.1958	2.5214	6.3226	16.6300 
1229.326	0.0854	0.0337	0.7710	8.1683	2.7136	6.3226	16.6100 
1229.346	0.0430	0.1040	0.7837	8.2068	3.0597	6.0095	16.6100 
1229.366	0.0151	0.0972	0.7832	8.2672	3.3948	5.6085	16.6200 
1229.480	0.0176	0.1191	0.7910	8.3057	3.7189	5.1801	16.6100 
1229.493	0.0259	0.1387	0.8936	8.3002	4.0375	4.8450	16.6200 
1229.494	0.0371	0.0830	0.9194	8.2013	4.2627	4.6802	16.6200 
1229.494	0.0601	0.0981	0.9429	8.0585	4.4879	4.4385	16.5800 
1229.494	0.0771	0.1895	0.9839	8.0255	4.7296	4.0979	16.6000 
1229.494	0.0732	0.1650	1.0269	8.0255	4.8560	3.9935	16.6000 
1229.512	0.0635	0.1279	1.0342	8.0420	4.8944	4.0430	16.5800 
1229.543	0.0254	0.1895	1.0737	8.1464	4.9768	4.0979	16.6000 
1229.562	0.0142	0.1855	1.0933	8.3112	5.0043	4.2847	16.5900 
1229.577	0.0850	0.3159	1.0293	8.5034	4.9713	4.4550	16.5900 
1229.592	0.1421	0.3652	1.0073	8.7341	4.8944	4.6637	16.6100 
1229.691	0.1367	0.1787	0.9541	8.8824	4.7845	4.9658	16.5900 
1229.709	0.0151	0.1328	1.0713	9.0198	4.9109	5.0043	16.5900 
1229.709	-0.1948	0.1763	1.3569	9.2780	5.2625	4.8065	16.5900 
1229.709	-0.1465	0.3604	1.2261	9.6790	5.3888	4.6307	16.5800 
1229.709	-0.1211	0.1831	1.0786	10.0580	5.2240	4.9713	16.5900 
1229.709	-0.1621	-0.0513	0.8921	10.1129	5.0922	5.1801	16.5800 
1229.727	-0.2319	0.2432	1.0718	10.0745	5.5536	4.7021	16.5800 
1229.742	-0.2646	0.1577	1.0791	10.0470	5.8228	4.6198	16.6000 
1229.762	-0.2129	0.0459	1.1255	9.8218	5.8502	4.7406	16.6000 
1229.784	-0.1143	0.2935	1.2412	9.6460	5.8447	4.7571	16.6000 
1229.799	-0.0322	0.1626	1.0493	9.5801	5.4602	5.2954	16.5900 
1229.819	-0.0049	0.1196	0.9517	9.4592	5.1141	5.8392	16.5800 
1229.934	-0.0366	0.2085	0.8979	9.3549	4.9658	6.0480	16.5800 
1229.959	-0.0742	0.1978	0.8354	9.2340	4.9054	6.1853	16.5800 
1229.959	-0.0850	0.2041	0.8159	9.0692	4.8779	6.3336	16.5800 
1229.959	-0.0586	0.2139	0.7622	8.9429	4.7845	6.5314	16.5900 
1229.959	-0.0264	0.1816	0.7417	8.8220	4.6417	6.7950	16.5800 
1229.959	-0.0269	0.1714	0.8066	8.6627	4.5319	7.0148	16.5800 
1229.959	-0.0562	0.1704	0.9087	8.4540	4.4714	7.1136	16.5700 
1229.978	-0.0688	0.1748	0.9316	8.2452	4.4330	7.0862	16.5800 
1230.080	-0.0630	0.2607	0.9097	8.1024	4.3890	6.8884	16.6000 
1230.092	-0.0674	0.3018	0.9258	8.0530	4.3451	6.6962	16.5800 
1230.093	-0.0884	0.2461	0.9927	8.0145	4.2737	6.6797	16.5900 
1230.093	-0.0850	0.2456	1.0498	7.9431	4.1803	6.7017	16.5900 
1230.093	-0.0713	0.2896	1.0942	7.9266	4.0375	6.6962	16.5900 
1230.112	-0.0605	0.2622	1.0854	7.9706	3.8177	6.7896	16.5800 
1230.138	-0.0752	0.2803	1.0996	8.0585	3.6255	6.9379	16.5700 
1230.160	-0.0967	0.3179	1.1094	8.1793	3.4717	7.1356	16.5900 
1230.160	-0.0229	0.2734	1.1499	8.2782	3.2245	7.4982	16.5900 
1230.182	0.0586	0.2695	1.2646	8.3716	2.9114	7.9321	16.5700 
1230.275	0.1157	0.1865	1.2627	8.5034	2.4500	8.5144	16.5700 
1230.293	0.1387	0.1182	1.1436	8.6298	1.9446	9.1901	16.5900 
1230.293	0.1685	0.0796	1.1455	8.6902	1.6425	9.8273	16.5700 
1230.293	0.1670	-0.0176	1.1494	8.6298	1.4722	10.4205	16.5700 
1230.293	0.1548	-0.0483	1.1294	8.4320	1.4117	10.6787	16.5700 
1230.310	0.0688	0.0107	1.2861	8.2507	1.5710	10.4865	16.5700 
1230.338	-0.0142	0.0327	1.3174	8.1573	1.7743	10.0964	16.5600 
1230.357	-0.0337	0.1738	1.1152	8.1354	1.9446	9.6075	16.5700 
1230.357	0.0181	0.1978	0.9810	8.1793	2.0325	9.3329	16.5800 
1230.377	0.0479	0.0190	0.7837	8.1628	2.0544	9.3658	16.5700 
1230.399	0.0688	0.0532	0.7490	8.1354	2.2522	9.1791	16.5600 
1230.420	0.0752	0.1455	0.7563	8.1793	2.5214	8.7726	16.5500 
1230.435	0.0547	0.1011	0.7544	8.1683	2.7301	8.4265	16.5700 
1230.455	0.0137	0.0879	0.8237	8.0585	2.9993	7.9706	16.5800 
1230.538	0.0161	0.1245	0.8633	7.9596	3.2684	7.5037	16.5800 
1230.556	0.0361	0.0635	0.9512	7.8003	3.4497	7.2894	16.5700 
1230.556	0.0410	0.0420	0.9717	7.6080	3.5596	7.1466	16.5500 
1230.556	0.0967	0.2139	0.9966	7.5421	3.6639	6.8939	16.5500 
1230.556	0.1113	0.2134	1.0000	7.5751	3.6749	6.8335	16.5600 
1230.578	0.1060	0.1050	0.9878	7.6025	3.6145	7.0093	16.5700 
1230.599	0.0596	0.1406	1.0552	7.6959	3.7024	7.0587	16.5600 
1230.619	-0.0034	0.1943	1.1162	7.8992	3.8232	7.0807	16.5500 
1230.634	0.0420	0.2900	1.0815	8.1519	3.8727	7.1411	16.5500 
1230.752	0.1895	0.3276	1.0264	8.4430	3.7848	7.3938	16.5600 
1230.774	0.2285	0.2466	0.9629	8.7122	3.6420	7.7124	16.5400 
1230.775	0.0938	0.1665	0.9834	8.9868	3.6749	7.8168	16.5600 
1230.775	-0.0757	0.1191	1.1416	9.3439	3.9496	7.7069	16.5400 
1230.775	-0.1479	0.3047	1.2446	9.7833	4.2462	7.4323	16.5700 
1230.775	-0.1216	0.3857	1.1675	10.2612	4.2737	7.3828	16.5600 
1230.775	-0.1489	-0.1055	1.0786	10.4480	4.0979	7.8113	16.5600 
1230.799	-0.1943	-0.0288	0.9990	10.4150	4.3451	7.4872	16.5600 
1230.817	-0.2681	0.2725	1.2588	10.4919	4.9658	6.8445	16.5400 
1230.839	-0.2646	0.0757	1.2437	10.5194	5.1910	6.8225	16.5600 
1230.857	-0.1250	0.1748	1.2153	10.4205	5.2625	6.8884	16.5600 
1230.962	-0.0591	0.2881	1.1895	10.4150	5.1910	6.9928	16.5700 
1230.974	-0.0093	0.1953	0.9482	10.4645	4.8560	7.4432	16.5400 
1230.974	0.0122	0.1948	0.7998	10.4535	4.5209	7.9102	16.5600 
1230.974	-0.0156	0.2275	0.7646	10.3821	4.3176	8.1519	16.5700 
1230.974	-0.0132	0.2231	0.7339	10.2667	4.1364	8.3331	16.5400 
1230.974	-0.0254	0.1367	0.7275	10.0580	3.9716	8.5364	16.5500 
1230.992	-0.0322	0.1729	0.7593	9.8602	3.8617	8.5419	16.5400 
1231.013	-0.0278	0.2598	0.8276	9.7394	3.8177	8.3990	16.5500 
1231.105	-0.0342	0.2100	0.8955	9.6130	3.7518	8.3826	16.5400 
1231.126	-0.0337	0.1553	0.9380	9.4263	3.6694	8.3661	16.5400 
1231.127	-0.0249	0.2456	0.9292	9.2999	3.6639	8.1079	16.5600 
1231.127	-0.0239	0.2886	0.9116	9.3109	3.6749	7.7893	16.5400 
1231.127	-0.0371	0.2456	0.9102	9.3109	3.6530	7.5641	16.5500 
1231.150	-0.0557	0.2739	0.9570	9.3054	3.6914	7.1851	16.5500 
1231.172	-0.0698	0.3486	1.0415	9.3384	3.6969	6.7401	16.5400 
1231.194	-0.0713	0.3135	1.0908	9.3768	3.5596	6.5039	16.5600 
1231.195	-0.0566	0.2476	1.0508	9.4043	3.3344	6.3721	16.5400 
1231.214	-0.0649	0.2939	1.0488	9.4812	3.1531	6.1798	16.5300 
1231.232	-0.0269	0.3403	1.1553	9.6021	2.9553	6.0864	16.5400 
1231.251	0.0708	0.3354	1.3154	9.7009	2.6587	6.2238	16.5600 
1231.271	0.1528	0.2075	1.2798	9.8657	2.1368	6.6577	16.5400 
1231.292	0.1274	0.1348	1.1191	10.0305	1.6589	6.9873	16.5400 
1231.404	0.1577	0.2300	1.1782	10.1843	1.5436	7.1136	16.5700 
1231.432	0.1582	0.0679	1.1689	10.1624	1.4008	7.6300	16.5400 
1231.432	0.1836	-0.0630	1.1157	9.9261	1.3403	7.9596	16.5600 
1231.432	0.1514	0.0757	1.1846	9.7504	1.5271	7.6025	16.5400 
1231.433	0.0024	0.0405	1.2212	9.6625	1.8127	7.0862	16.5300 
1231.433	-0.0703	0.0518	1.2070	9.5526	2.1973	6.5094	16.5300 
1231.445	-0.0430	0.2095	1.0107	9.5197	2.5269	5.8832	16.5300 
1231.544	0.0044	0.1851	0.8667	9.5471	2.7081	5.5975	16.5400 
1231.560	0.0547	0.0415	0.7168	9.4867	2.8345	5.6030	16.5300 
1231.560	0.0601	0.0640	0.7480	9.3933	3.1091	5.3943	16.5200 
1231.560	0.0063	0.1104	0.8022	9.3384	3.4991	4.9164	16.5400 
1231.560	0.0005	0.1245	0.8228	9.2725	3.8507	4.4110	16.5300 
1231.560	0.0215	0.1538	0.8740	9.1901	4.1583	3.9880	16.5200 
1231.589	0.0376	0.1177	0.9331	9.0582	4.3835	3.8013	16.5300 
1231.609	0.0566	0.1099	0.9805	8.8879	4.5319	3.7079	16.5400 
1231.630	0.0742	0.1929	0.9722	8.7726	4.6637	3.5046	16.5400 
1231.644	0.0898	0.2344	1.0210	8.7177	4.7791	3.3673	16.5400 
1231.660	0.0811	0.1938	0.9893	8.7067	4.8120	3.4003	16.5300 
1231.757	0.0283	0.1899	1.0098	8.7561	4.8999	3.4497	16.5400 
1231.777	-0.0132	0.2046	1.0703	8.8605	5.0812	3.5156	16.5400 
1231.777	0.0078	0.2114	1.0791	8.9868	5.2130	3.6969	16.5400 
1231.777	0.0879	0.2891	1.0337	9.1351	5.2460	3.9111	16.5500 
1231.777	0.1479	0.2715	0.9878	9.3274	5.2185	4.1858	16.5400 
1231.777	0.0674	0.1646	1.0010	9.5416	5.2020	4.4934	16.5500 
1231.810	-0.1846	0.0835	1.3623	9.7833	5.4877	4.6198	16.5400 
1231.829	-0.1636	0.3462	1.2505	10.1239	5.7623	4.4330	16.5300 
1231.829	-0.1792	0.2427	1.0566	10.5634	5.7623	4.5538	16.5200 
1231.851	-0.2373	-0.0635	0.9346	10.7336	5.7239	4.8560	16.5400 
1231.866	-0.2847	0.2461	1.1523	10.6512	6.2402	4.3890	16.5300 
1231.969	-0.2808	0.2207	1.2305	10.5634	6.6248	4.2023	16.5400 
1231.994	-0.1802	0.0342	1.2007	10.3326	6.5643	4.4989	16.5400 
1231.994	-0.0933	0.2402	1.2363	10.1184	6.4819	4.6472	16.5400 
1231.994	0.0015	0.2676	1.0171	10.0745	6.1798	5.0647	16.5300 
1231.994	0.0278	0.1279	0.8901	9.9811	5.7458	5.8228	16.5200 
1231.994	0.0166	0.1074	0.7764	9.7833	5.4327	6.3666	16.5100 
1232.010	-0.0513	0.1719	0.7412	9.5966	5.3119	6.5259	16.5200 
1232.028	-0.0840	0.1587	0.7466	9.4098	5.2075	6.5753	16.5400 
1232.051	-0.0771	0.2051	0.7813	9.2120	5.0867	6.5753	16.5200 
1232.071	-0.0503	0.2139	0.8174	9.0253	4.8944	6.6522	16.5200 
1232.184	-0.0195	0.1709	0.8384	8.8055	4.6417	6.7676	16.5100 
1232.191	-0.0200	0.1475	0.8916	8.5638	4.4440	6.7731	16.5100 
1232.191	-0.0405	0.1870	0.9189	8.3771	4.3231	6.5424	16.5300 
1232.191	-0.0444	0.2480	0.9434	8.2892	4.2902	6.1578	16.5400 
1232.191	-0.0601	0.2847	0.9375	8.2892	4.2407	5.8777	16.5200 
1232.191	-0.0674	0.2583	0.9858	8.2892	4.1803	5.7733	16.5100 
1232.213	-0.0508	0.2866	1.0571	8.2727	4.0649	5.7019	16.5200 
1232.226	-0.0483	0.2788	1.1030	8.2837	3.8782	5.7129	16.5200 
1232.246	-0.0439	0.2588	1.0845	8.3276	3.6365	5.7568	16.5200 
1232.266	-0.0303	0.3125	1.0649	8.4320	3.4277	5.7294	16.5200 
1232.284	-0.0078	0.2944	1.0229	8.5913	3.2245	5.7898	16.5200 
1232.304	0.0073	0.2529	1.0811	8.7616	3.0322	5.9106	16.5200 
1232.419	0.0376	0.2920	1.3369	8.9539	2.8510	6.0919	16.5200 
1232.444	0.0791	0.2666	1.2646	9.1901	2.4445	6.4709	16.5200 
1232.444	0.1514	0.1514	1.0518	9.4208	1.9336	7.0038	16.5200 
1232.444	0.2173	0.1543	1.0625	9.5801	1.6095	7.4817	16.5200 
1232.444	0.2314	0.0083	1.2261	9.5801	1.4502	8.1244	16.5100 
1232.444	0.1782	-0.1118	1.2095	9.4373	1.3293	8.5693	16.5000 
1232.458	0.0181	-0.0024	1.3042	9.2944	1.5820	8.2288	16.5000 
1232.568	-0.0737	0.1431	1.2988	9.2944	2.1039	7.3608	16.5000 
1232.574	-0.0464	0.2324	1.0176	9.3494	2.5159	6.6302	16.5100 
1232.574	0.0303	0.2319	0.8569	9.3768	2.7576	6.2622	16.5100 
1232.574	0.0723	0.0474	0.6792	9.3329	2.9333	6.2677	16.5300 
1232.574	0.0547	0.0205	0.7188	9.1956	3.2465	6.1853	16.5100 
1232.574	0.0146	0.1309	0.8486	9.1022	3.7024	5.7294	16.5100 
1232.603	0.0142	0.1143	0.8535	9.0527	4.0704	5.2844	16.5100 
1232.624	0.0376	0.1069	0.8296	9.0088	4.3781	4.9054	16.5200 
1232.624	0.0537	0.1582	0.8496	8.9923	4.6967	4.5099	16.5100 
1232.643	0.0337	0.1401	0.9604	8.9319	4.9823	4.2078	16.5000 
1232.667	0.0254	0.1230	0.9712	8.8330	5.1746	3.9825	16.5000 
1232.774	0.0415	0.2085	1.0059	8.8165	5.3284	3.7244	16.5100 
1232.794	0.0518	0.2109	1.0024	8.8879	5.4163	3.5760	16.5100 
1232.794	0.0513	0.1665	1.0313	8.9978	5.4602	3.5980	16.5200 
1232.794	0.0229	0.1875	1.0669	9.1241	5.5536	3.6200	16.5100 
1232.794	0.0151	0.2979	1.1265	9.2834	5.6799	3.5925	16.5100 
1232.794	0.0703	0.3770	1.1187	9.4427	5.7623	3.6475	16.5100 
1232.822	0.1450	0.2637	1.0439	9.5526	5.6854	3.9496	16.5000 
1232.842	0.1089	0.1689	0.9766	9.6240	5.6195	4.2352	16.5100 
1232.842	-0.0024	0.1748	1.0283	9.7778	5.8392	4.1858	16.5000 
1232.862	-0.1968	0.1030	1.2759	10.0360	6.1633	4.1364	16.5000 
1232.887	-0.1479	0.2734	1.1304	10.3491	6.2952	3.9935	16.5100 
1232.987	-0.1768	0.1973	0.9995	10.7336	6.2567	4.1858	16.4900 
1233.017	-0.2534	-0.0542	0.9707	10.8325	6.3226	4.3121	16.4900 
1233.017	-0.3042	0.2031	1.1216	10.8051	6.7841	3.7628	16.5000 
1233.017	-0.3003	0.2075	1.2612	10.7776	7.0972	3.5815	16.5100 
1233.017	-0.1924	0.1216	1.2671	10.6238	7.0642	3.7848	16.5000 
1233.017	-0.0894	0.2524	1.2627	10.4700	6.9489	3.9880	16.5000 
1233.040	-0.0049	0.2373	1.0605	10.3876	6.6522	4.4055	16.4900 
1233.061	-0.0229	0.1318	0.9165	10.2557	6.3776	4.8944	16.4800 
1233.061	-0.0864	0.1763	0.8335	10.1074	6.3391	4.9933	16.5100 
1233.082	-0.0972	0.2144	0.7954	10.0031	6.3226	4.9603	16.5100 
1233.104	-0.1011	0.1064	0.7354	9.8438	6.2073	4.9713	16.4900 
1233.209	-0.0708	0.1665	0.7417	9.6954	6.1304	4.8450	16.5000 
1233.227	-0.0298	0.2412	0.7446	9.6405	6.0150	4.7351	16.5000 
1233.227	-0.0337	0.1636	0.7729	9.4922	5.8502	4.7241	16.4900 
1233.227	-0.0796	0.1382	0.9009	9.2340	5.8282	4.4714	16.5100 
1233.227	-0.0991	0.2271	0.9316	9.0472	5.8722	3.9771	16.4800 
1233.227	-0.1099	0.2573	0.9341	8.9868	5.8282	3.5815	16.4800 
1233.258	-0.1030	0.2432	0.9292	8.9484	5.7239	3.3398	16.4900 
1233.278	-0.1006	0.2720	1.0088	8.8879	5.6305	3.1696	16.4900 
1233.292	-0.0806	0.2974	1.0264	8.8440	5.4932	3.0322	16.5000 
1233.310	-0.0674	0.2822	1.0361	8.8165	5.2789	2.9553	16.5000 
1233.328	-0.0640	0.3013	1.0283	8.8165	5.0208	2.8400	16.5000 
1233.343	-0.0732	0.3223	1.0313	8.8770	4.7461	2.7301	16.4800 
1233.425	-0.0903	0.2993	1.0107	8.9648	4.4550	2.6862	16.4900 
1233.459	-0.0562	0.3184	1.1445	9.0747	4.1693	2.6697	16.5000 
1233.459	0.0181	0.2827	1.2764	9.1736	3.7848	2.8784	16.4800 
1233.459	0.0811	0.1533	1.2925	9.2944	3.2245	3.3508	16.4900 
1233.459	0.1133	0.1089	1.1855	9.4263	2.6697	3.7793	16.4900 
1233.469	0.1719	0.1401	1.1855	9.5636	2.3181	4.1858	16.5000 
1233.499	0.1812	0.0215	1.1587	9.5636	2.0325	4.8340	16.5100 
1233.513	0.1577	-0.0317	1.1714	9.3933	1.8732	5.2460	16.5000 
1233.524	0.0747	-0.0049	1.2554	9.2395	1.9391	5.1636	16.5000 
1233.542	-0.0586	0.0820	1.2759	9.1736	2.2028	4.6967	16.5000 
1233.655	-0.0713	0.1704	1.1348	9.2175	2.4445	4.1638	16.4900 
1233.676	-0.0112	0.1768	0.8804	9.3604	2.5323	3.9276	16.5000 
1233.676	0.0049	0.0781	0.7607	9.4537	2.5928	4.0045	16.4900 
1233.676	0.0283	0.1050	0.7529	9.4482	2.8235	3.9771	16.5000 
1233.676	0.0376	0.1602	0.7646	9.4812	3.1366	3.7793	16.5100 
1233.676	0.0244	0.0620	0.7720	9.4922	3.3893	3.6639	16.4800 
1233.698	0.0171	0.0815	0.8232	9.4647	3.6804	3.4662	16.5000 
1233.699	0.0229	0.1396	0.8672	9.4482	4.0375	3.1366	16.4800 
1233.790	0.0337	0.1631	0.9849	9.4263	4.3451	2.9498	16.5000 
1233.809	0.0298	0.1333	0.9985	9.3604	4.5099	2.9224	16.4800 
1233.809	0.0688	0.2461	1.0181	9.3384	4.6472	2.8510	16.4900 
1233.809	0.0854	0.3003	1.0161	9.4263	4.6912	2.9333	16.4900 
1233.809	0.0923	0.1855	0.9883	9.5142	4.6088	3.2849	16.4900 
1233.830	0.0640	0.1821	1.0063	9.6021	4.6417	3.5321	16.4800 
1233.855	0.0117	0.3013	1.0952	9.7668	4.7955	3.6530	16.4900 
1233.875	0.0269	0.3062	1.1011	9.9426	4.8560	3.9606	16.4900 
1233.898	0.1416	0.3789	1.0605	10.0635	4.8505	4.2847	16.4800 
1233.898	0.1953	0.3525	1.0093	10.1624	4.7900	4.5648	16.4900 
1234.004	0.0542	0.1685	0.9556	10.2997	4.8010	4.7626	16.4800 
1234.026	-0.1021	0.1543	1.0957	10.4974	5.0922	4.7076	16.4800 
1234.026	-0.1782	0.3413	1.2354	10.8435	5.4272	4.5593	16.4900 
1234.026	-0.1011	0.4214	1.0669	11.2335	5.3998	4.7461	16.4900 
1234.026	-0.1675	-0.1479	0.8818	11.2885	5.1691	5.3833	16.4700 
1234.026	-0.2769	-0.1353	0.9697	11.1456	5.5481	4.9548	16.4900 
1234.055	-0.3345	0.3682	1.3384	11.0742	6.2292	4.2023	16.4800 
1234.055	-0.2666	0.2515	1.3276	10.9589	6.3391	4.2572	16.4800 
1234.076	-0.0825	0.1016	1.2578	10.6403	6.1194	4.7461	16.4800 
1234.094	-0.0322	0.2207	1.1968	10.3876	5.9436	4.9988	16.4900 
1234.115	-0.0400	0.2539	1.0225	10.2557	5.7623	5.2789	16.4800 
1234.136	-0.0410	0.1353	0.8613	10.0854	5.5206	5.7184	16.4900 
1234.237	-0.0542	0.1514	0.7500	9.8657	5.3668	5.9766	16.4900 
1234.259	-0.0635	0.1895	0.7104	9.7009	5.2130	6.0864	16.4900 
1234.259	-0.0327	0.2002	0.7373	9.5197	4.9988	6.2402	16.5000 
1234.259	-0.0049	0.2080	0.7358	9.3164	4.6912	6.3940	16.5000 
1234.259	-0.0015	0.2090	0.7925	9.1077	4.4220	6.5039	16.4800 
1234.259	-0.0220	0.1812	0.8633	8.8770	4.2242	6.5863	16.4800 
1234.276	-0.0532	0.1377	0.8989	8.6243	4.0704	6.5424	16.4800 
1234.293	-0.0698	0.1689	0.8960	8.4540	3.9661	6.2897	16.4900 
1234.311	-0.0488	0.3179	0.9722	8.3936	3.9221	5.9271	16.4900 
1234.331	-0.0347	0.3281	1.0205	8.3661	3.8177	5.7513	16.4900 
1234.350	-0.0054	0.2549	1.0283	8.2947	3.6090	5.7788	16.4800 
1234.464	-0.0293	0.2568	1.0894	8.2343	3.4387	5.7678	16.4800 
1234.490	-0.0610	0.2808	1.1519	8.2617	3.3014	5.7733	16.4900 
1234.490	-0.0884	0.2217	1.1240	8.3331	3.0981	5.9821	16.4700 
1234.491	-0.1196	0.2485	1.1191	8.4100	2.9443	6.2018	16.4800 
1234.491	-0.0645	0.3760	1.1563	8.5144	2.8510	6.3501	16.4900 
1234.491	0.0864	0.2305	1.2515	8.5858	2.5928	6.9214	16.5000 
1234.491	0.1812	0.1855	1.1758	8.6847	2.1259	7.6794	16.4900 
1234.512	0.2300	0.1187	1.0488	8.7946	1.7523	8.3661	16.4700 
1234.605	0.2554	0.0771	1.0410	8.8330	1.4941	8.9758	16.4700 
1234.626	0.1719	-0.1436	1.1807	8.7012	1.4722	9.6570	16.4700 
1234.626	0.0962	-0.1929	1.2080	8.4869	1.5546	10.0305	16.4800 
1234.626	0.0005	-0.0356	1.3525	8.3771	1.9720	9.4922	16.4800 
1234.626	-0.0635	0.1738	1.3335	8.4320	2.3456	8.8275	16.4800 
1234.650	-0.0229	0.1802	1.1563	8.4869	2.4829	8.4705	16.4800 
1234.669	0.0610	0.1353	0.8994	8.5254	2.5983	8.3057	16.4800 
1234.689	0.0884	0.0879	0.7588	8.5968	2.7905	8.2562	16.4700 
1234.712	0.0596	0.0220	0.7568	8.6572	3.1366	8.1244	16.4600 
1234.819	0.0288	0.1152	0.7759	8.7506	3.6145	7.5421	16.4700 
1234.841	0.0073	0.1475	0.7827	8.8824	4.0320	6.9049	16.4600 
1234.841	0.0024	0.1118	0.8101	8.9484	4.3835	6.3995	16.4700 
1234.842	0.0210	0.1167	0.8906	8.9319	4.6967	5.9491	16.4700 
1234.842	0.0264	0.1187	0.9668	8.8660	4.9713	5.5591	16.4700 
1234.842	0.0586	0.1670	0.9653	8.8110	5.1526	5.1910	16.4700 
1234.842	0.0815	0.2051	0.9712	8.7946	5.3064	4.8615	16.4800 
1234.861	0.0835	0.2217	0.9956	8.8110	5.4053	4.6472	16.4700 
1234.889	0.0610	0.2324	1.0200	8.8440	5.5151	4.5099	16.4700 
1234.910	-0.0015	0.1807	1.0586	8.8824	5.6305	4.5374	16.4600 
1234.910	-0.0386	0.1523	1.0952	8.8989	5.7733	4.6362	16.4700 
1234.932	0.0176	0.3179	1.0762	8.9648	5.8777	4.6637	16.4900 
1235.031	0.0898	0.3633	1.0449	9.0967	5.8722	4.8669	16.4800 
1235.043	0.1553	0.2842	1.0107	9.1956	5.8008	5.2075	16.4800 
1235.043	0.0835	0.1875	1.1069	9.2615	5.8557	5.4327	16.4700 
1235.043	-0.1543	0.1143	1.4004	9.3549	6.1359	5.3394	16.4600 
1235.043	-0.1514	0.3740	1.1646	9.6240	6.3611	4.8230	16.4600 
1235.065	-0.2319	0.1187	0.9136	10.0140	6.4325	4.7131	16.4500 
1235.085	-0.2925	-0.1382	0.8428	10.1404	6.6138	4.6252	16.4600 
1235.106	-0.3423	0.1436	1.1914	10.1074	7.1136	4.1144	16.4600 
1235.127	-0.2705	0.2427	1.2603	10.0360	7.2400	3.9386	16.4400 
1235.221	-0.1328	0.0615	1.1992	9.8822	6.9324	4.2737	16.4500 
1235.241	-0.0605	0.1719	1.1377	9.7339	6.6357	4.4550	16.4600 
1235.242	-0.0337	0.2642	1.0967	9.7174	6.3831	4.5703	16.4700 
1235.242	-0.0146	0.1680	0.9541	9.6680	6.0095	4.9164	16.4500 
1235.242	-0.0283	0.0859	0.8022	9.5087	5.6799	5.2350	16.4500 
1235.242	-0.0371	0.1724	0.7681	9.3713	5.4657	5.2625	16.4500 
1235.264	-0.0513	0.1821	0.7402	9.2560	5.2460	5.2954	16.4500 
1235.288	-0.0386	0.1670	0.7153	9.0967	4.9658	5.3943	16.4500 
1235.288	-0.0171	0.2197	0.7866	8.9154	4.7351	5.4492	16.4500 
1235.308	-0.0142	0.2085	0.8564	8.6957	4.5319	5.4877	16.4300 
1235.327	-0.0093	0.1416	0.9155	8.4045	4.3231	5.5096	16.4300 
1235.435	-0.0269	0.1558	0.9580	8.1079	4.1968	5.3613	16.4300 
1235.459	-0.0361	0.2959	0.9556	7.9706	4.1803	4.9384	16.4500 
1235.459	-0.0503	0.3027	0.9341	7.9376	4.1528	4.6033	16.4400 
1235.459	-0.0713	0.1851	0.9209	7.8827	4.0869	4.5044	16.4400 
1235.459	-0.0830	0.2104	0.9907	7.7893	4.0649	4.3506	16.4500 
1235.459	-0.0791	0.2720	1.1011	7.7179	4.0155	4.1418	16.4500 
1235.477	-0.0503	0.2676	1.1729	7.6740	3.8068	4.1144	16.4500 
1235.505	-0.0552	0.2305	1.1304	7.6794	3.5211	4.1748	16.4500 
1235.526	-0.0557	0.3525	1.0986	7.7454	3.3618	4.1089	16.4400 
1235.526	-0.0322	0.3433	1.1987	7.7948	3.2135	4.2902	16.4300 
1235.545	0.0186	0.1504	1.3760	7.7563	2.9059	4.8999	16.4400 
1235.637	0.0728	0.1758	1.2295	7.8772	2.4225	5.4657	16.4300 
1235.661	0.1650	0.1826	1.0864	8.0914	2.0050	6.0754	16.4400 
1235.662	0.2002	0.1182	1.0356	8.2507	1.6754	6.8555	16.4300 
1235.662	0.1836	-0.1245	1.0625	8.2178	1.4777	7.6520	16.4500 
1235.662	0.1797	-0.0928	1.0850	8.0804	1.4941	7.7728	16.4400 
1235.681	0.0869	0.0547	1.2891	8.0365	1.7853	7.2345	16.4500 
1235.703	0.0132	0.0020	1.2461	8.0255	2.0105	6.6357	16.4400 
1235.728	-0.0083	0.1807	1.1079	8.0365	2.2906	5.8173	16.4500 
1235.728	0.0088	0.2041	1.0127	8.0750	2.5214	5.2405	16.4400 
1235.743	0.0347	0.0225	0.8398	8.0310	2.6477	5.1031	16.4500 
1235.846	0.0547	0.0469	0.7886	7.9706	2.8674	4.8724	16.4400 
1235.857	0.0771	0.1313	0.7637	7.9980	3.1256	4.5428	16.4300 
1235.858	0.0654	0.0464	0.7480	7.9761	3.3234	4.3341	16.4200 
1235.858	0.0386	0.0830	0.8203	7.8937	3.5870	3.9331	16.4500 
1235.858	0.0361	0.1372	0.8647	7.8223	3.8452	3.4387	16.4300 
1235.876	0.0425	0.0879	0.9111	7.7344	3.9990	3.1311	16.4400 
1235.901	0.0493	0.0566	0.9463	7.5861	4.1034	2.9553	16.4300 
1235.921	0.0522	0.1597	1.0249	7.4762	4.2023	2.7191	16.4400 
1235.944	0.0688	0.1973	1.0254	7.4652	4.2133	2.5763	16.4400 
1236.043	0.0664	0.0942	1.0137	7.4872	4.1254	2.7026	16.4400 
1236.059	0.0356	0.0923	1.0464	7.5696	4.1034	2.8345	16.4400 
1236.059	0.0132	0.2510	1.0884	7.8003	4.1473	2.8510	16.4400 
1236.059	0.0664	0.3286	1.1318	8.0859	4.1144	3.0432	16.4300 
1236.059	0.2109	0.2959	1.0347	8.3496	3.8892	3.5211	16.4600 
1236.059	0.2412	0.2314	0.9917	8.5638	3.6694	3.9661	16.4400 
1236.075	0.0781	0.1567	1.0630	8.8220	3.6475	4.0979	16.4300 
1236.100	-0.0815	0.1191	1.2168	9.1571	3.8837	3.9606	16.4300 
1236.121	-0.1357	0.3149	1.3086	9.5856	4.1748	3.6749	16.4300 
1236.122	-0.0972	0.3726	1.1626	10.0635	4.2572	3.5541	16.4300 
1236.142	-0.1074	0.0156	0.8843	10.2502	4.1913	3.7354	16.4500 
1236.247	-0.1987	0.0098	0.9292	10.1953	4.5209	3.4003	16.4400 
1236.277	-0.3179	0.0977	1.1836	10.1294	5.1306	2.7960	16.4500 
1236.277	-0.3086	0.0732	1.3032	9.9921	5.5042	2.4609	16.4600 
1236.277	-0.1235	0.2065	1.2793	9.8108	5.5042	2.4774	16.4500 
1236.277	-0.0459	0.1870	1.1270	9.7174	5.2020	2.8400	16.4300 
1236.278	0.0054	0.1821	0.9795	9.6680	4.8450	3.3289	16.4500 
1236.297	0.0044	0.1826	0.8701	9.6130	4.5483	3.7573	16.4400 
1236.319	-0.0161	0.1587	0.8271	9.4867	4.3396	4.0430	16.4500 
1236.338	-0.0264	0.1821	0.7500	9.3384	4.1638	4.1034	16.4400 
1236.355	-0.0293	0.1880	0.7690	9.1956	4.0045	4.0704	16.4600 
1236.456	-0.0366	0.1597	0.7827	9.0363	3.8177	3.9935	16.4400 
1236.476	-0.0288	0.2144	0.8022	8.9319	3.6530	3.8232	16.4400 
1236.476	-0.0269	0.2080	0.8721	8.8550	3.4662	3.7518	16.4300 
1236.476	-0.0220	0.1450	0.8750	8.7067	3.2574	3.6804	16.4300 
1236.476	-0.0361	0.2266	0.9126	8.5913	3.1860	3.3289	16.4500 
1236.476	-0.0464	0.2876	0.9448	8.5968	3.1641	2.9059	16.4400 
1236.493	-0.0557	0.2549	0.9644	8.6078	3.0707	2.6532	16.4300 
1236.517	-0.0493	0.2617	1.0151	8.5913	2.9663	2.4170	16.4400 
1236.540	-0.0361	0.2871	1.0308	8.6078	2.8015	2.2028	16.4300 
1236.554	-0.0308	0.2544	1.0547	8.6353	2.5928	2.0819	16.4500 
1236.659	-0.0273	0.2437	1.0757	8.6737	2.3730	1.9775	16.4600 
1236.673	-0.0386	0.2793	1.0679	8.7671	2.1643	1.8567	16.4500 
1236.673	-0.0176	0.3242	1.1025	8.9429	1.9391	1.8237	16.4500 
1236.673	0.0425	0.3198	1.2388	9.1077	1.6809	1.9171	16.4400 
1236.673	0.1943	0.3174	1.2744	9.2615	1.2524	2.1753	16.4500 
1236.673	0.2070	0.1924	1.2178	9.4098	0.7526	2.5818	16.4500 
1236.693	0.2207	0.0864	1.1450	9.4867	0.4285	2.9333	16.4300 
1236.715	0.2153	0.0459	1.1729	9.4373	0.3241	3.2300	16.4200 
1236.738	0.1733	-0.0986	1.1128	9.2120	0.2856	3.4113	16.4500 
1236.739	0.1133	-0.0986	1.1675	8.9594	0.4614	3.1586	16.4500 
1236.759	-0.0439	0.0044	1.3081	8.7891	0.9174	2.4335	16.4400 
1236.876	-0.0840	0.0933	1.2515	8.7286	1.3293	1.6315	16.4500 
1236.891	-0.0103	0.2051	0.9619	8.7781	1.5271	1.0931	16.4600 
1236.892	0.0303	0.1260	0.8276	8.8165	1.5985	1.0107	16.4400 
1236.892	0.0532	-0.0376	0.7510	8.7012	1.7303	1.0931	16.4300 
1236.892	0.0576	0.0527	0.7813	8.5803	2.1149	0.8075	16.4400 
1236.892	0.0127	0.1152	0.8652	8.5309	2.5928	0.3296	16.4500 
1236.914	0.0103	0.0410	0.8555	8.4320	2.9773	-0.0385	16.4300 
1236.935	0.0137	0.1357	0.8765	8.3386	3.3893	-0.4724	16.4200 
1236.958	0.0225	0.1665	0.8872	8.3112	3.7628	-0.8185	16.4300 
1236.958	0.0410	0.1240	0.9131	8.2288	3.9880	-0.9174	16.4500 
1236.979	0.0347	0.1396	1.0278	8.1134	4.1913	-0.9338	16.4400 
1237.091	0.0542	0.1694	1.0220	8.0090	4.3066	-0.8514	16.4400 
1237.108	0.0742	0.1479	1.0127	7.8937	4.3451	-0.6152	16.4300 
1237.108	0.0698	0.1748	1.0327	7.8113	4.4055	-0.3516	16.4400 
1237.108	0.0615	0.1943	1.0044	7.8003	4.4495	-0.0549	16.4400 
1237.108	0.0566	0.2017	1.0259	7.8278	4.4989	0.3680	16.4400 
1237.108	0.0347	0.1533	1.0874	7.8497	4.5483	0.8954	16.4400 
1237.133	0.0762	0.2485	1.0571	7.8662	4.5868	1.2744	16.4300 
1237.154	0.1367	0.3506	1.0098	7.9761	4.6252	1.5381	16.4400 
1237.169	0.1523	0.2715	0.9370	8.1409	4.5319	1.9995	16.4500 
1237.190	0.0542	0.1470	0.9609	8.1958	4.5319	2.3401	16.4300 
1237.306	-0.0483	0.1880	1.1689	8.2947	4.7791	2.3621	16.4400 
1237.325	-0.1084	0.1797	1.3223	8.4924	4.9384	2.5488	16.4400 
1237.325	-0.0688	0.2456	1.2012	8.8000	4.8944	2.8729	16.4500 
1237.325	-0.0884	0.0845	1.0664	8.9923	4.8560	3.3783	16.4500 
1237.325	-0.1045	0.0874	0.9243	9.0033	5.0153	3.5156	16.4600 
1237.325	-0.2085	0.1123	0.9966	8.9319	5.4382	3.4113	16.4600 
1237.325	-0.2813	-0.0376	1.0332	8.7177	5.7898	3.3069	16.4500 
1237.340	-0.2974	0.0850	1.2300	8.4650	6.1304	2.9773	16.4400 
1237.364	-0.2178	0.2031	1.2612	8.3331	6.1578	2.9059	16.4400 
1237.378	-0.0903	0.0732	1.0942	8.2233	5.8008	3.2629	16.4500 
1237.395	-0.0244	0.1245	1.0474	8.0585	5.4712	3.5596	16.4500 
1237.415	0.0078	0.2119	0.9780	7.9211	5.2075	3.6969	16.4400 
1237.512	-0.0161	0.1460	0.8613	7.7509	4.9274	3.8177	16.4400 
1237.525	-0.0620	0.1704	0.8027	7.5970	4.8285	3.7573	16.4400 
1237.525	-0.0713	0.2041	0.7827	7.5201	4.8175	3.7189	16.4300 
1237.525	-0.0698	0.1108	0.7661	7.3993	4.7241	3.8782	16.4200 
1237.525	-0.0566	0.0732	0.8516	7.1466	4.5923	3.9331	16.4300 
1237.549	-0.0225	0.0181	0.8760	6.7676	4.3341	3.6749	16.4300 
1237.647	-0.0801	0.0186	0.9907	6.3776	4.1638	2.8674	16.4400 
1237.654	-0.1001	0.3706	1.0229	6.2677	4.1913	1.5656	16.4500 
1237.654	-0.0928	0.4473	0.9980	6.1743	4.2188	0.7965	16.4500 
1237.654	-0.0903	0.1392	0.9458	6.0535	4.0100	0.8954	16.4300 
1237.654	-0.0703	0.1372	0.8262	5.8447	3.7738	0.9668	16.4400 
1237.654	-0.0645	0.2163	0.9297	5.5975	3.6584	0.8020	16.4400 
1237.671	-0.0493	0.1782	0.9697	5.2954	3.3838	0.7251	16.4400 
1237.690	-0.0459	0.0723	1.0430	4.9384	3.0212	0.7690	16.4500 
1237.712	-0.0654	0.0806	1.0791	4.7186	2.6587	0.6152	16.4400 
1237.731	-0.0645	0.2266	1.0698	4.6692	2.3126	0.1978	16.4300 
1237.751	-0.0210	0.3062	1.1045	4.7076	1.9830	-0.0714	16.4300 
1237.771	0.0591	0.1660	1.3188	4.6362	1.6699	0.1373	16.4400 
1237.792	0.1431	0.0771	1.3726	4.4550	1.2854	0.5603	16.4400 
1237.810	0.1953	0.0054	1.3267	4.3396	0.8789	0.8569	16.4400 
1237.923	0.1943	-0.0005	1.3052	4.2517	0.5878	0.9833	16.4400 
1237.941	0.1587	0.0913	1.0273	4.2682	0.2911	0.9393	16.4400 
1237.941	0.0718	-0.0996	1.0264	4.2297	0.0934	1.1700	16.4300 
1237.941	0.0552	-0.2803	1.1694	3.9716	0.1593	1.5106	16.4300 
1237.941	0.0767	-0.1069	1.2339	3.7244	0.4230	1.4117	16.4200 
1237.941	0.1152	0.0244	1.0781	3.7134	0.5219	1.1646	16.4300 
1237.959	0.0972	-0.0386	0.9878	3.7738	0.5273	1.0876	16.4400 
1237.974	0.0439	-0.0122	0.9453	3.8123	0.6866	0.7965	16.4400 
1238.064	0.0156	0.0454	0.9175	3.8782	0.9283	0.3241	16.4300 
1238.074	0.0103	0.0103	0.8779	3.9221	1.1700	0.0494	16.4200 
1238.074	0.0596	-0.0059	0.8779	3.9386	1.3898	-0.0275	16.4300 
1238.074	0.0923	0.0410	0.8760	4.0045	1.5765	-0.0220	16.4300 
1238.074	0.1196	0.0127	0.9321	4.0924	1.7358	0.1044	16.4300 
1238.092	0.1064	-0.0112	1.0000	4.1583	1.9226	0.2252	16.4300 
1238.109	0.0674	0.0225	1.0469	4.1913	2.1149	0.2472	16.4100 
1238.128	0.0698	0.0977	1.0361	4.2572	2.2577	0.2637	16.4300 
1238.146	0.1030	0.1396	1.0269	4.3396	2.3291	0.5548	16.4300 
1238.169	0.1313	0.0986	0.9829	4.3890	2.3291	1.1755	16.4300 
1238.282	0.1240	0.0303	0.9751	4.3945	2.3840	1.8567	16.4300 
1238.289	0.0830	0.0313	0.9800	4.4110	2.5104	2.3566	16.4500 
1238.289	0.0210	0.0723	1.0020	4.4769	2.6862	2.7081	16.4200 
1238.289	0.0063	0.0767	1.0269	4.5758	2.8455	3.1311	16.4400 
1238.289	0.0396	0.0420	1.0044	4.6582	2.9004	3.7408	16.4400 
1238.289	0.0859	0.0684	0.9648	4.7516	2.9059	4.3781	16.4300 
1238.306	0.1206	0.0986	0.9756	4.8944	2.9114	5.0482	16.4300 
1238.326	0.1216	0.0962	0.9614	5.0482	2.9114	5.7184	16.4400 
1238.346	0.0728	0.0596	1.0010	5.1855	2.9718	6.3281	16.4400 
1238.368	0.0044	0.0049	1.0933	5.3119	3.1146	6.8939	16.4400 
1238.388	-0.0576	0.0781	1.3062	5.4657	3.3234	7.3059	16.4400 
1238.498	-0.0103	0.2075	1.3359	5.6525	3.3618	7.7289	16.4500 
1238.508	0.0146	0.1494	1.4399	5.8008	3.2520	8.4375	16.4500 
1238.508	0.0298	0.1763	1.2837	5.9106	3.0762	8.9429	16.4500 
1238.508	0.0327	0.3970	0.9893	6.0919	3.0432	9.0912	16.4400 
1238.508	-0.0356	0.1528	0.8198	6.2512	3.0597	9.7943	16.4400 
1238.508	-0.1870	-0.2319	0.7402	6.1469	3.2684	10.4095	16.4500 
1238.524	-0.2368	-0.0811	0.8281	6.0260	3.7793	10.1404	16.4500 
1238.545	-0.2017	0.1611	1.0981	5.9821	4.1748	10.0140	16.4700 
1238.564	-0.1187	0.0967	1.0615	5.9326	4.1858	10.4865	16.4600 
1238.583	-0.0459	0.0430	1.0688	5.8392	4.1528	11.1292	16.4500 
1238.605	-0.0488	0.1162	1.1440	5.7843	4.2792	11.5356	16.4500 
1238.719	-0.0928	0.1357	1.1167	5.7404	4.4000	11.8927	16.4500 
1238.744	-0.1055	0.0488	1.0352	5.6305	4.4550	12.3047	16.4600 
1238.744	-0.0889	0.1230	0.9888	5.5206	4.5374	12.5519	16.4500 
1238.744	-0.0688	0.1602	0.9199	5.5042	4.5868	12.7496	16.4600 
1238.744	-0.0767	0.0400	0.9243	5.4712	4.6088	13.0627	16.4600 
1238.744	-0.1021	0.0483	0.9507	5.3998	4.6802	13.1616	16.4600 
1238.762	-0.1396	0.0840	0.9629	5.3888	4.8230	13.0188	16.4500 
1238.776	-0.1504	0.0352	0.9453	5.4163	4.9384	12.8265	16.4600 
1238.795	-0.1436	0.1138	0.9790	5.5096	5.0757	12.3871	16.4700 
1238.807	-0.1367	0.1357	1.0278	5.6909	5.1746	11.8872	16.4700 
1238.828	-0.1240	0.0542	1.1523	5.8557	5.1910	11.5741	16.4600 
1238.936	-0.0835	0.1587	1.2065	5.9821	5.2075	11.2610	16.4600 
1238.960	0.0249	0.2734	1.0649	6.1414	5.0592	11.1346	16.4700 
1238.961	0.0811	0.1411	0.9536	6.2512	4.7241	11.4038	16.4800 
1238.961	0.0630	0.0000	0.9175	6.1908	4.4385	11.7279	16.4700 
1238.961	-0.0098	0.1274	0.9761	6.1194	4.4110	11.4862	16.4800 
1238.961	-0.0308	0.1797	1.0259	6.1469	4.3945	11.1896	16.4800 
1238.977	-0.0117	0.0352	1.0039	6.1633	4.2188	11.2280	16.4800 
1239.068	0.0093	0.1104	1.0298	6.1908	4.0869	11.1346	16.4800 
1239.092	0.0327	0.1479	1.0879	6.2732	3.9606	11.0962	16.4900 
1239.092	0.0474	0.0698	1.0610	6.3007	3.7958	11.2555	16.4700 
1239.092	0.0557	0.1577	1.0459	6.3226	3.7463	11.2280	16.4600 
1239.092	0.0532	0.1792	1.0288	6.4160	3.7024	11.2225	16.4800 
1239.092	0.0508	0.1006	0.9854	6.4709	3.6255	11.3654	16.4800 
1239.121	0.0532	0.1245	1.0059	6.4764	3.6090	11.4258	16.4800 
1239.143	0.0356	0.0962	1.0400	6.4490	3.6255	11.4917	16.4800 
1239.159	0.0288	0.0801	1.0254	6.3831	3.6639	11.5411	16.4900 
1239.175	0.0303	0.1177	1.0278	6.3281	3.7463	11.5247	16.4900 
1239.192	0.0288	0.1074	1.0298	6.2842	3.8013	11.5631	16.4900 
1239.305	0.0322	0.1221	1.0254	6.2402	3.8287	11.6125	16.4900 
1239.324	0.0356	0.1333	1.0273	6.2128	3.8507	11.6730	16.4800 
1239.325	0.0376	0.1182	1.0254	6.1798	3.8397	11.7664	16.4800 
1239.325	0.0396	0.1343	1.0210	6.1414	3.8287	11.8323	16.5000 
1239.325	0.0303	0.1099	1.0308	6.0974	3.8232	11.9092	16.4900 
1239.325	0.0225	0.1079	1.0186	6.0480	3.8177	11.9751	16.4800 
1239.325	0.0278	0.1357	1.0278	6.0040	3.8177	12.0300	16.4800 
1239.340	0.0254	0.1064	1.0337	5.9546	3.7958	12.1564	16.4900 
1239.360	0.0264	0.1201	1.0244	5.9052	3.7738	12.2662	16.4900 
1239.378	0.0347	0.1475	1.0244	5.8777	3.7628	12.3486	16.4900 
1239.399	0.0386	0.1025	1.0273	5.8447	3.7189	12.5134	16.5100 
1239.493	0.0366	0.1055	1.0298	5.7953	3.6859	12.6398	16.5000 
1239.507	0.0391	0.1548	1.0259	5.7788	3.6859	12.6782	16.5000 
1239.507	0.0361	0.1226	1.0283	5.7678	3.6804	12.7881	16.5000 
1239.508	0.0322	0.1206	1.0410	5.7349	3.6969	12.8650	16.5100 
1239.508	0.0210	0.1260	1.0410	5.7239	3.7189	12.9199	16.5100 
1239.525	0.0146	0.1294	1.0186	5.7294	3.7299	12.9694	16.5200 
1239.541	0.0225	0.1548	1.0229	5.7458	3.7408	12.9803	16.5100 
1239.559	0.0220	0.0977	1.0176	5.7568	3.7189	13.0627	16.5100 
1239.577	0.0205	0.1240	1.0269	5.7568	3.7244	13.0792	16.5100 
1239.597	0.0205	0.1445	1.0303	5.7843	3.7354	13.0573	16.5200 
1239.621	0.0176	0.1074	1.0063	5.8118	3.7024	13.1287	16.5200 
1239.654	0.0186	0.1484	1.0298	5.8337	3.7024	13.1287	16.5100 
1239.751	0.0215	0.1440	1.0288	5.8722	3.6859	13.1561	16.5200 
1239.775	0.0293	0.1240	1.0166	5.8942	3.6365	13.2330	16.5200 
1239.775	0.0342	0.1494	1.0342	5.9161	3.6090	13.2715	16.5300 
1239.775	0.0459	0.1338	1.0220	5.9326	3.5706	13.3484	16.5300 
1239.775	0.0513	0.1396	1.0181	5.9381	3.5486	13.4308	16.5400 
1239.775	0.0444	0.1606	1.0352	5.9546	3.5706	13.4418	16.5100 
1239.797	0.0195	0.1226	1.0205	5.9601	3.5870	13.4967	16.5300 
1239.818	0.0127	0.1245	1.0210	5.9491	3.6365	13.5132	16.5200 
1239.832	0.0215	0.1592	1.0400	5.9491	3.6859	13.5242	16.5300 
1239.858	0.0200	0.1191	1.0239	5.9546	3.6859	13.6230	16.5200 
1239.858	0.0200	0.1396	1.0288	5.9601	3.7244	13.6780	16.5200 
1239.969	0.0205	0.1626	1.0288	5.9930	3.7573	13.7054	16.5200 
1239.994	0.0063	0.1123	1.0122	6.0260	3.7628	13.7933	16.5200 
1239.994	-0.0015	0.1289	1.0215	6.0425	3.8068	13.8043	16.5300 
1239.994	0.0049	0.1577	1.0190	6.0809	3.8342	13.8208	16.5300 
1239.995	0.0098	0.1372	1.0215	6.1084	3.8123	13.9142	16.5200 
1239.995	0.0210	0.1558	1.0195	6.1304	3.7958	13.9801	16.5400 
1240.012	0.0225	0.1592	1.0190	6.1523	3.7793	14.0515	16.5400 
1240.125	0.0151	0.1318	1.0225	6.1523	3.7518	14.1449	16.5300 
1240.126	0.0098	0.1406	1.0356	6.1469	3.7518	14.1943	16.5400 
1240.156	0.0103	0.1416	1.0415	6.1578	3.7354	14.2548	16.5400 
1240.156	0.0142	0.1372	1.0166	6.1743	3.6969	14.3427	16.5300 
1240.156	0.0210	0.1587	1.0107	6.1908	3.6694	14.3976	16.5500 
1240.156	0.0210	0.1396	1.0137	6.2018	3.6365	14.5020	16.5400 
1240.157	0.0190	0.1431	1.0264	6.2018	3.6145	14.5844	16.5500 
1240.157	0.0210	0.1650	1.0337	6.2183	3.5925	14.6393	16.5400 
1240.176	0.0215	0.1318	1.0171	6.2292	3.5431	14.7437	16.5200 
1240.197	0.0210	0.1455	1.0181	6.2292	3.5156	14.8096	16.5300 
1240.216	0.0161	0.1523	1.0288	6.2402	3.4991	14.8480	16.5500 
1240.237	0.0181	0.1396	1.0186	6.2402	3.4607	14.9030	16.5600 
1240.346	0.0195	0.1567	1.0225	6.2347	3.4387	14.9469	16.5600 
1240.355	0.0239	0.1514	1.0293	6.2402	3.4058	15.0018	16.5500 
1240.356	0.0220	0.1396	1.0254	6.2402	3.3673	15.0677	16.5800 
1240.357	0.0264	0.1641	1.0215	6.2402	3.3398	15.0952	16.5600 
1240.357	0.0205	0.1382	1.0205	6.2402	3.3069	15.1501	16.5800 
1240.357	0.0234	0.1465	1.0273	6.2292	3.2849	15.1831	16.5800 
1240.374	0.0278	0.1548	1.0264	6.2238	3.2629	15.2271	16.5700 
1240.394	0.0225	0.1382	1.0093	6.2128	3.2355	15.2875	16.5800 
1240.414	0.0259	0.1602	1.0269	6.2018	3.2245	15.3094	16.5700 
1240.435	0.0254	0.1416	1.0269	6.1853	3.2025	15.3644	16.5800 
1240.457	0.0249	0.1357	1.0254	6.1688	3.1750	15.4303	16.6000 
1240.550	0.0205	0.1440	1.0337	6.1523	3.1696	15.4468	16.6000 
1240.562	0.0220	0.1445	1.0210	6.1469	3.1586	15.4797	16.5900 
1240.562	0.0288	0.1680	1.0244	6.1469	3.1476	15.4962	16.5800 
1240.562	0.0278	0.1357	1.0151	6.1523	3.1256	15.5621	16.6000 
1240.562	0.0234	0.1411	1.0269	6.1359	3.1256	15.6061	16.6000 
1240.590	0.0190	0.1641	1.0361	6.1359	3.1476	15.6006	16.6000 
1240.612	0.0161	0.1240	1.0449	6.1139	3.1531	15.6665	16.6100 
1240.633	0.0166	0.1143	1.0186	6.0809	3.1531	15.6995	16.6000 
1240.648	0.0190	0.1597	1.0229	6.0809	3.1696	15.6610	16.6200 
1240.741	0.0220	0.1357	1.0132	6.0754	3.1531	15.6830	16.6300 
1240.741	0.0195	0.1396	1.0176	6.0645	3.1531	15.6775	16.6000 
1240.770	0.0244	0.1626	1.0293	6.0645	3.1531	15.6445	16.6100 
1240.770	0.0303	0.1299	1.0146	6.0590	3.1311	15.6775	16.6100 
1240.770	0.0244	0.1436	1.0317	6.0480	3.1366	15.6500	16.6200 
1240.770	0.0229	0.1523	1.0234	6.0480	3.1311	15.6281	16.6000 
1240.791	0.0205	0.1294	1.0127	6.0315	3.1091	15.6445	16.6300 
1240.811	0.0186	0.1436	1.0327	6.0150	3.1146	15.6171	16.6200 
1240.831	0.0171	0.1387	1.0151	6.0150	3.1036	15.6006	16.6100 
1240.851	0.0181	0.1333	1.0352	6.0095	3.1091	15.6006	16.6200 
1240.851	0.0249	0.1377	1.0308	5.9985	3.0927	15.5951	16.6200 
1240.960	0.0303	0.1411	1.0303	5.9930	3.0762	15.6006	16.6200 
1240.974	0.0308	0.1353	1.0298	5.9930	3.0542	15.6171	16.6200 
1240.974	0.0273	0.1411	1.0249	5.9930	3.0432	15.6116	16.6200 
1240.974	0.0293	0.1460	1.0264	5.9985	3.0377	15.6061	16.6300 
1240.974	0.0190	0.1196	1.0264	5.9930	3.0267	15.6226	16.6500 
1240.974	0.0137	0.1284	1.0234	5.9875	3.0322	15.6006	16.6500 
1240.989	0.0146	0.1416	1.0298	5.9930	3.0377	15.5731	16.6600 
1241.008	0.0205	0.1333	1.0288	5.9985	3.0212	15.5841	16.6300 
1241.030	0.0259	0.1284	1.0234	5.9930	2.9938	15.6061	16.6500 
1241.050	0.0249	0.1333	1.0181	5.9930	2.9828	15.6116	16.6400 
1241.071	0.0176	0.1392	1.0293	5.9875	2.9773	15.6061	16.6500 
1241.178	0.0137	0.1323	1.0278	5.9821	2.9718	15.6116	16.6500 
1241.187	0.0195	0.1265	1.0244	5.9711	2.9553	15.6281	16.6500 
1241.187	0.0234	0.1353	1.0239	5.9491	2.9553	15.6390	16.6600 
1241.187	0.0229	0.1396	1.0225	5.9381	2.9663	15.6390	16.6600 
1241.187	0.0200	0.1309	1.0361	5.9161	2.9718	15.6500	16.6500 
1241.187	0.0186	0.1211	1.0264	5.8942	2.9828	15.6610	16.6700 
1241.207	0.0205	0.1387	1.0259	5.8667	2.9938	15.6500	16.6500 
1241.228	0.0142	0.1162	1.0186	5.8447	2.9883	15.6720	16.6700 
1241.248	0.0156	0.1084	1.0181	5.8173	2.9773	15.6940	16.6600 
1241.267	0.0249	0.1294	1.0273	5.8008	2.9718	15.6940	16.6700 
1241.286	0.0269	0.1196	1.0186	5.7953	2.9553	15.7269	16.6600 
1241.395	0.0239	0.1357	1.0361	5.7898	2.9498	15.7324	16.6700 
1241.423	0.0190	0.1245	1.0396	5.7898	2.9388	15.7544	16.6600 
1241.423	0.0161	0.1084	1.0337	5.7678	2.9279	15.8093	16.6800 
1241.423	0.0225	0.1377	1.0381	5.7568	2.9388	15.8368	16.6700 
1241.423	0.0239	0.0967	1.0195	5.7568	2.9114	15.9467	16.6700 
1241.423	0.0254	0.1172	1.0259	5.7458	2.9059	16.0291	16.6800