StartTime: 2018-11-18 09:26:32.427
Time(s)	ax(g)	ay(g)	az(g)	AngleX(deg)	AngleY(deg)	AngleZ(deg)	T(Â°) 
1272.399	0.1045	0.1621	1.0132	7.8552	-2.1753	-2.4774	16.2200 
1272.417	0.1045	0.1509	1.0137	7.8278	-2.1808	-2.4335	16.2100 
1272.440	0.1006	0.1504	1.0171	7.8003	-2.1753	-2.4060	16.2200 
1272.468	0.0957	0.1650	1.0322	7.7838	-2.1588	-2.4005	16.2000 
1272.483	0.0918	0.1416	1.0239	7.7618	-2.1588	-2.3676	16.2100 
1272.595	0.1025	0.1782	1.0107	7.7563	-2.1423	-2.3785	16.2000 
1272.618	0.1055	0.1743	1.0078	7.7563	-2.1423	-2.3566	16.2000 
1272.618	0.0913	0.1465	1.0161	7.7289	-2.1423	-2.3346	16.2100 
1272.618	0.0933	0.1841	1.0259	7.7179	-2.1204	-2.3621	16.2000 
1272.618	0.0962	0.1797	1.0146	7.7289	-2.1313	-2.3511	16.2300 
1272.618	0.0957	0.1650	1.0093	7.7179	-2.1423	-2.3401	16.2000 
1272.620	0.0767	0.1821	1.0181	7.7124	-2.1094	-2.4170	16.2100 
1272.646	0.0732	0.2007	0.9946	7.7124	-2.0764	-2.5159	16.2200 
1272.666	0.0659	0.1865	1.0024	7.6849	-2.0435	-2.5873	16.2100 
1272.683	0.0708	0.1875	1.0161	7.6245	-2.0270	-2.6477	16.2300 
1272.695	0.0713	0.1997	1.0088	7.5531	-2.0215	-2.7136	16.2200 
1272.719	0.0674	0.1929	0.9961	7.4762	-2.0215	-2.7850	16.2100 
1272.830	0.0542	0.2153	1.0161	7.3993	-1.9940	-2.8784	16.2200 
1272.851	0.0459	0.1860	1.0024	7.3059	-1.9940	-2.9279	16.2200 
1272.851	0.0483	0.1846	1.0054	7.2125	-1.9885	-2.9938	16.2100 
1272.851	0.0493	0.2168	1.0151	7.1301	-1.9611	-3.1091	16.2300 
1272.851	0.0615	0.2148	1.0264	7.0477	-1.9391	-3.1696	16.2200 
1272.851	0.0708	0.1899	1.0000	6.9324	-1.9446	-3.1860	16.2100 
1272.851	0.0806	0.2021	1.0000	6.8170	-1.9226	-3.2355	16.2200 
1272.867	0.0776	0.2002	1.0044	6.7181	-1.8896	-3.2959	16.2100 
1272.981	0.0674	0.1636	1.0142	6.5918	-1.8457	-3.3289	16.2300 
1273.002	0.0757	0.1885	1.0332	6.4600	-1.7908	-3.3893	16.2300 
1273.002	0.0928	0.1904	1.0059	6.3226	-1.7523	-3.4003	16.2300 
1273.002	0.1094	0.1533	1.0117	6.1688	-1.7249	-3.3398	16.2300 
1273.002	0.1128	0.1509	1.0210	5.9985	-1.6644	-3.3398	16.2400 
1273.002	0.1162	0.2251	1.0220	5.8447	-1.5326	-3.4222	16.2300 
1273.016	0.1372	0.1265	0.9810	5.6854	-1.4502	-3.3179	16.2500 
1273.036	0.1597	0.0815	0.9468	5.4547	-1.4008	-3.1421	16.2400 
1273.049	0.1626	0.0996	0.9902	5.2460	-1.2415	-3.0762	16.2400 
1273.063	0.1582	0.0537	1.0415	5.0482	-1.1041	-2.9773	16.2400 
1273.087	0.1772	0.0962	1.1006	4.8944	-0.9723	-2.9663	16.2400 
1273.103	0.2070	0.1895	1.1211	4.8285	-0.9283	-2.9773	16.2500 
1273.198	0.1890	0.1055	1.0723	4.7461	-0.9998	-2.8180	16.2600 
1273.217	0.1357	0.1001	1.0718	4.6472	-0.9558	-2.8290	16.2600 
1273.218	0.1187	0.1787	1.0723	4.6252	-0.8075	-2.9718	16.2500 
1273.218	0.1401	0.1704	1.0059	4.6143	-0.7416	-2.9388	16.2700 
1273.218	0.1748	0.2119	0.9575	4.6143	-0.7196	-2.8839	16.2600 
1273.236	0.1841	0.1758	0.8892	4.5978	-0.7141	-2.8015	16.2600 
1273.260	0.1484	0.0723	0.9502	4.4714	-0.6317	-2.7191	16.2600 
1273.283	0.0972	0.0381	0.9858	4.3286	-0.4834	-2.8345	16.2600 
1273.283	0.0898	0.1460	1.0449	4.2737	-0.2911	-3.1091	16.2700 
1273.308	0.1567	0.2080	1.0513	4.2627	-0.2472	-3.1421	16.2600 
1273.398	0.1875	0.1064	1.0000	4.1913	-0.3351	-2.8619	16.2800 
1273.415	0.1870	0.1196	1.0029	4.1144	-0.3131	-2.6642	16.2800 
1273.415	0.1479	0.1436	1.0000	4.1034	-0.2032	-2.5983	16.2700 
1273.415	0.1152	0.1431	0.9917	4.1199	-0.0824	-2.5433	16.2900 
1273.415	0.1172	0.1533	1.0205	4.1473	0.0330	-2.4774	16.2800 
1273.434	0.1426	0.1445	1.0020	4.1693	0.0934	-2.3071	16.2800 
1273.462	0.1533	0.1489	0.9927	4.1858	0.1373	-2.1423	16.2900 
1273.482	0.1475	0.1460	0.9546	4.2242	0.1813	-1.9720	16.2800 
1273.482	0.1421	0.1309	0.9409	4.2682	0.2252	-1.8127	16.2800 
1273.501	0.1582	0.2051	0.9941	4.3176	0.2856	-1.7523	16.2700 
1273.522	0.1660	0.1724	1.0024	4.3671	0.2747	-1.5765	16.2800 
1273.543	0.1426	0.1377	0.9600	4.3945	0.2307	-1.3953	16.3000 
1273.560	0.1489	0.2134	1.0098	4.4934	0.2692	-1.3898	16.3000 
1273.583	0.1499	0.1514	1.0200	4.5868	0.2472	-1.2634	16.2900 
1273.662	0.1841	0.2207	1.0186	4.6747	0.2307	-1.1700	16.2700 
1273.680	0.2075	0.2314	1.0977	4.7955	0.2087	-1.0217	16.3000 
1273.680	0.2080	0.1670	1.1104	4.8834	0.1263	-0.7471	16.3000 
1273.681	0.2104	0.2583	1.1807	5.0043	0.1538	-0.5988	16.2900 
1273.681	0.2109	0.2217	1.1855	5.1691	0.1758	-0.3461	16.3000 
1273.698	0.2139	0.1675	1.1387	5.3448	0.1648	0.0110	16.3000 
1273.720	0.1719	0.1836	1.2158	5.5261	0.3021	0.2856	16.3000 
1273.740	0.1519	0.2017	1.1982	5.7623	0.4285	0.5054	16.2900 
1273.759	0.1597	0.2437	1.1021	6.1084	0.4834	0.6757	16.2900 
1273.881	0.1016	0.2061	1.0625	6.5424	0.5493	0.8789	16.2900 
1273.898	0.0288	0.0933	1.0581	6.8774	0.6262	1.0822	16.3000 
1273.898	-0.0391	0.0449	0.8994	7.1686	0.7031	1.0437	16.2900 
1273.898	-0.0776	0.0781	0.7930	7.5421	0.7855	0.8679	16.2900 
1273.898	-0.1201	0.0410	0.8296	7.8442	0.8734	0.7196	16.3000 
1273.899	-0.1431	0.0195	1.0840	7.9102	0.9778	0.4559	16.2900 
1273.899	-0.1431	0.1606	1.1602	7.9926	1.0437	0.0110	16.2800 
1273.916	-0.1235	0.1655	1.1069	8.1299	1.0107	-0.1538	16.2900 
1273.941	-0.1118	0.1504	1.2031	8.2123	0.9998	-0.0769	16.3000 
1273.956	-0.0557	0.1172	1.1563	8.2562	0.8514	0.1154	16.2900 
1273.976	-0.0151	0.1450	1.0620	8.2947	0.6812	0.3186	16.2900 
1273.996	0.0327	0.1914	0.9209	8.4100	0.5219	0.5219	16.2800 
1274.064	0.0781	0.2178	0.8247	8.5638	0.3406	0.6812	16.3000 
1274.094	0.0625	0.1953	0.8638	8.6133	0.2472	0.7526	16.2800 
1274.094	0.0327	0.2041	0.9297	8.5748	0.2307	0.7086	16.2800 
1274.094	-0.0103	0.2310	0.8965	8.5474	0.1868	0.6757	16.2800 
1274.117	0.0073	0.2329	0.8721	8.5089	0.0989	0.7526	16.2800 
1274.137	0.0195	0.1445	0.8779	8.3716	0.0055	0.9448	16.2800 
1274.151	-0.0049	0.1348	0.9170	8.2013	0.0110	0.9778	16.3000 
1274.167	-0.0239	0.2197	0.9624	8.1244	0.1099	0.8240	16.2900 
1274.274	-0.0303	0.1890	0.9497	8.0750	0.1538	0.7635	16.3100 
1274.281	-0.0098	0.2061	0.9443	8.0035	0.1538	0.6866	16.2900 
1274.281	-0.0029	0.2153	0.9707	7.9651	0.1208	0.6042	16.2900 
1274.281	-0.0151	0.1855	1.0059	7.9266	0.0439	0.5493	16.3200 
1274.281	-0.0068	0.2397	1.0317	7.9541	-0.0385	0.4010	16.3000 
1274.281	0.0283	0.2915	1.0234	8.0914	-0.2032	0.2307	16.2900 
1274.312	0.0371	0.2783	0.9937	8.2562	-0.4230	0.0989	16.2800 
1274.334	0.0249	0.2827	0.9575	8.4320	-0.6152	-0.0604	16.3000 
1274.350	0.0029	0.2769	0.9902	8.6023	-0.7416	-0.2142	16.3000 
1274.379	0.0151	0.2549	1.0283	8.7341	-0.9064	-0.3186	16.3000 
1274.379	0.0522	0.2241	1.1802	8.7891	-1.0822	-0.3625	16.3000 
1274.474	0.1343	0.2402	1.2129	8.8330	-1.3293	-0.3571	16.2900 
1274.481	0.1348	0.1816	1.2153	8.9209	-1.6205	-0.2637	16.3000 
1274.481	0.1968	0.1167	1.1714	8.9154	-1.8567	-0.0494	16.2900 
1274.481	0.2031	0.0259	1.1694	8.7946	-2.0160	0.3900	16.2900 
1274.481	0.1758	-0.1450	1.0684	8.5638	-2.1643	0.9558	16.2900 
1274.503	0.1421	-0.1587	1.0874	8.3057	-2.2028	1.2085	16.2900 
1274.518	0.0923	0.0005	1.2720	8.1628	-2.0380	0.8514	16.2900 
1274.536	0.0654	0.0620	1.2773	8.1189	-1.8951	0.3790	16.2900 
1274.557	0.0981	0.1240	1.0781	8.1738	-1.8951	0.0604	16.3000 
1274.575	0.1064	0.0684	0.9624	8.2233	-1.9446	-0.0549	16.2800 
1274.675	0.0894	0.0073	0.8750	8.2178	-1.9501	-0.1428	16.2800 
1274.700	0.0952	0.0869	0.8633	8.2507	-1.8402	-0.4230	16.2800 
1274.700	0.1123	0.1006	0.8428	8.3716	-1.7303	-0.7086	16.2800 
1274.700	0.1216	0.0869	0.8042	8.5254	-1.6644	-0.9503	16.2700 
1274.700	0.1294	0.1465	0.8047	8.7341	-1.4996	-1.3403	16.2700 
1274.700	0.1143	0.1499	0.9097	8.8824	-1.2799	-1.7029	16.2800 
1274.717	0.1021	0.0991	0.9766	8.8770	-1.0986	-1.9391	16.2800 
1274.733	0.1201	0.1113	0.9722	8.8330	-0.9778	-2.1478	16.2800 
1274.753	0.1440	0.1587	0.9751	8.8440	-0.8789	-2.3126	16.2700 
1274.774	0.1489	0.2012	0.9414	8.8934	-0.7910	-2.4335	16.2600 
1274.790	0.1484	0.2627	0.9478	8.9429	-0.6372	-2.5983	16.2700 
1274.883	0.1406	0.2314	0.9937	8.9209	-0.4614	-2.5928	16.2700 
1274.899	0.1353	0.1646	0.9888	8.8055	-0.3241	-2.4609	16.2800 
1274.899	0.1318	0.1968	0.9785	8.7396	-0.1648	-2.4170	16.2900 
1274.899	0.1157	0.2100	1.0107	8.7506	-0.0275	-2.2906	16.2800 
1274.899	0.1211	0.2212	1.0737	8.7616	0.0110	-2.0599	16.2700 
1274.930	0.1626	0.2695	1.0942	8.7946	0.0110	-1.8292	16.2600 
1274.950	0.2266	0.2856	1.0527	8.8605	-0.0165	-1.5656	16.2700 
1274.965	0.2271	0.2744	1.0454	8.9429	0.0220	-1.3678	16.2700 
1274.982	0.1582	0.2510	1.0073	9.0472	0.1813	-1.3184	16.2600 
1275.002	0.0791	0.2129	1.0659	9.1846	0.4395	-1.3403	16.2700 
1275.118	0.0029	0.2661	1.3081	9.3109	0.8020	-1.4502	16.2700 
1275.131	0.0518	0.3682	1.2266	9.4757	0.9723	-1.5326	16.2800 
1275.132	0.0171	0.1235	1.1050	9.6240	0.9283	-1.2415	16.2700 
1275.132	-0.0449	0.0234	1.0337	9.6790	0.9393	-1.1481	16.2700 
1275.132	-0.1357	0.1401	0.9585	9.7778	1.1536	-1.5930	16.2800 
1275.132	-0.1724	0.0918	0.9639	9.7559	1.3898	-1.9391	16.2800 
1275.132	-0.2412	-0.0986	1.1274	9.5197	1.6260	-2.1973	16.2800 
1275.151	-0.2046	0.0405	1.1602	9.2395	1.8402	-2.6862	16.2800 
1275.171	-0.1069	0.1748	1.1392	9.0363	1.8567	-2.9388	16.2900 
1275.264	-0.0615	0.0664	1.1284	8.7726	1.6315	-2.7301	16.2800 
1275.282	0.0171	0.0923	1.0591	8.4595	1.3678	-2.4994	16.2900 
1275.283	0.0537	0.1768	0.9673	8.2178	1.1481	-2.3346	16.2800 
1275.283	0.0562	0.1274	0.8594	8.0090	0.9448	-2.0215	16.2800 
1275.283	0.0288	0.1030	0.7959	7.7838	0.8130	-1.7249	16.2800 
1275.309	0.0010	0.2021	0.7910	7.6190	0.7855	-1.6095	16.2900 
1275.330	0.0117	0.2271	0.8198	7.5092	0.7471	-1.4392	16.2800 
1275.331	0.0464	0.1514	0.8032	7.3444	0.6152	-1.1316	16.2800 
1275.349	0.0537	0.1338	0.8384	7.1356	0.5054	-0.8954	16.2700 
1275.371	0.0039	0.1328	0.9551	6.9104	0.5109	-0.8240	16.2800 
1275.387	-0.0195	0.1973	0.9897	6.7401	0.5603	-0.8734	16.2800 
1275.474	-0.0112	0.2480	0.9590	6.6852	0.5109	-0.8295	16.2800 
1275.481	0.0020	0.1958	0.9565	6.6028	0.4065	-0.5878	16.2900 
1275.481	0.0024	0.2036	1.0151	6.4709	0.3296	-0.3680	16.2800 
1275.481	0.0044	0.2358	0.9985	6.3721	0.2582	-0.2802	16.3000 
1275.508	-0.0273	0.1714	1.0674	6.2952	0.1868	-0.2142	16.2800 
1275.527	-0.0542	0.1313	1.1338	6.2073	0.1154	-0.1923	16.3000 
1275.528	-0.0698	0.2075	1.1880	6.2018	0.0604	-0.3241	16.3000 
1275.548	-0.0400	0.2886	1.1675	6.2952	-0.1208	-0.3076	16.3000 
1275.572	0.0098	0.2378	1.0293	6.4105	-0.4724	-0.0714	16.2900 
1275.674	0.0674	0.2383	1.1162	6.5533	-0.6921	0.0604	16.3000 
1275.705	0.1011	0.1846	1.2275	6.6907	-0.9174	0.2307	16.3100 
1275.705	0.1787	0.1973	1.1299	6.8445	-1.2744	0.3955	16.3000 
1275.706	0.1890	0.1265	1.1260	6.9214	-1.5875	0.6317	16.3000 
1275.706	0.2705	0.0205	1.1069	6.8555	-1.8512	0.9338	16.2900 
1275.706	0.2778	-0.1021	1.1060	6.6742	-2.0709	1.3568	16.3000 
1275.731	0.2466	-0.1196	1.1274	6.4435	-2.1478	1.5271	16.3000 
1275.747	0.1802	-0.0752	1.2319	6.2622	-2.0270	1.3074	16.2900 
1275.747	0.0942	-0.0649	1.2729	6.0919	-1.8787	0.9943	16.2800 
1275.767	0.0762	0.0161	1.2295	5.9491	-1.6699	0.5823	16.2900 
1275.791	0.1274	0.1279	1.0420	5.8777	-1.4667	0.2307	16.2700 
1275.880	0.1455	0.0557	0.8525	5.8118	-1.3184	0.1318	16.2900 
1275.899	0.1323	-0.0024	0.7510	5.7349	-1.0327	0.0494	16.2800 
1275.899	0.1216	0.0454	0.7324	5.7239	-0.6427	-0.2032	16.2900 
1275.899	0.0972	0.0195	0.7832	5.7129	-0.2802	-0.4669	16.2900 
1275.899	0.0747	0.0156	0.8232	5.6799	0.0220	-0.7635	16.2800 
1275.928	0.0767	0.0762	0.8965	5.6799	0.2747	-1.0876	16.2800 
1275.950	0.0918	0.0527	0.9136	5.6744	0.4175	-1.2744	16.2900 
1275.950	0.1333	0.0811	0.9629	5.6415	0.4944	-1.4063	16.2800 
1275.966	0.1436	0.1143	1.0068	5.6360	0.5438	-1.5161	16.3000 
1275.986	0.1523	0.1143	0.9849	5.6635	0.5054	-1.5656	16.2900 
1276.007	0.1543	0.1689	0.9868	5.7349	0.4834	-1.6315	16.2800 
1276.105	0.1514	0.1826	1.0171	5.8282	0.4724	-1.6150	16.2800 
1276.116	0.1563	0.1460	1.0337	5.8612	0.4340	-1.4392	16.2700 
1276.116	0.1475	0.1201	1.0630	5.8777	0.3955	-1.2250	16.2700 
1276.117	0.1455	0.1406	1.0576	5.9491	0.3571	-1.0712	16.2700 
1276.117	0.1670	0.2417	1.0439	6.1194	0.3351	-0.9833	16.2700 
1276.143	0.1992	0.2578	1.0474	6.3391	0.2911	-0.8075	16.2600 
1276.164	0.2729	0.2583	1.0229	6.5314	0.2252	-0.5603	16.2700 
1276.183	0.2583	0.1968	1.0122	6.6852	0.2032	-0.3021	16.2800 
1276.184	0.1025	0.0596	1.0088	6.8225	0.3021	-0.1538	16.2700 
1276.204	-0.0352	0.0562	1.1943	7.0313	0.6372	-0.2747	16.2800 
1276.295	-0.0371	0.2676	1.2559	7.4103	0.9558	-0.4779	16.2900 
1276.315	-0.0015	0.2905	1.1777	7.8717	0.9668	-0.3625	16.2700 
1276.315	0.0010	-0.0615	1.0918	8.0640	0.7581	0.1263	16.2800 
1276.315	-0.0562	0.0059	1.0747	8.0640	0.8075	0.0055	16.2800 
1276.316	-0.1738	0.0757	1.1675	8.1573	1.1646	-0.5823	16.2600 
1276.330	-0.2192	-0.0283	1.2373	8.2013	1.4667	-0.9393	16.2600 
1276.367	-0.1289	0.1538	1.2632	8.2068	1.6315	-1.2415	16.2700 
1276.384	-0.0122	0.2300	1.1953	8.2672	1.5161	-1.2524	16.2700 
1276.384	0.0605	0.1226	1.0601	8.2947	1.1261	-0.7141	16.2800 
1276.401	0.0981	0.0918	0.8730	8.2892	0.8020	-0.2582	16.2700 
1276.420	0.0845	0.1973	0.8594	8.3661	0.7251	-0.1483	16.2800 
1276.530	0.0381	0.1343	0.7905	8.3990	0.6427	0.0110	16.2700 
1276.563	0.0210	0.0869	0.7715	8.3276	0.6042	0.0714	16.2700 
1276.563	0.0259	0.1709	0.8291	8.2782	0.6757	-0.1318	16.2700 
1276.563	0.0278	0.2104	0.8438	8.2672	0.7361	-0.3845	16.2800 
1276.563	0.0142	0.1152	0.8452	8.1848	0.7416	-0.5933	16.2500 
1276.564	0.0103	0.1104	0.8560	8.1134	0.7745	-1.0382	16.2600 
1276.564	0.0078	0.2373	0.9248	8.1519	0.9064	-1.7303	16.2600 
1276.585	-0.0005	0.2456	0.9575	8.2013	1.0052	-2.3566	16.2700 
1276.675	-0.0269	0.1748	0.9175	8.2013	1.0327	-2.9279	16.2600 
1276.698	-0.0562	0.2363	0.9482	8.2233	1.1646	-3.6584	16.2700 
1276.699	-0.0645	0.3345	0.9512	8.3276	1.2689	-4.3616	16.2600 
1276.699	-0.0405	0.3301	0.9761	8.4045	1.2360	-4.7296	16.2600 
1276.699	-0.0015	0.2451	1.0220	8.3881	1.0162	-4.6582	16.2600 
1276.721	0.0151	0.2061	1.0190	8.3551	0.7416	-4.4714	16.2600 
1276.721	0.0073	0.3062	1.0376	8.3881	0.5328	-4.4220	16.2700 
1276.742	-0.0054	0.3740	1.0298	8.4814	0.3186	-4.3396	16.2700 
1276.762	0.0132	0.2954	1.0732	8.5144	0.0330	-4.0045	16.2600 
1276.780	0.0762	0.2231	1.2266	8.4375	-0.2362	-3.5376	16.2700 
1276.798	0.2036	0.1777	1.2754	8.3551	-0.5933	-3.0048	16.2700 
1276.823	0.2349	0.0723	1.2246	8.2782	-1.0217	-2.3676	16.2700 
1276.837	0.2485	-0.0625	1.2456	8.0969	-1.3458	-1.5491	16.2500 
1276.967	0.2129	-0.1274	1.2759	7.7948	-1.5436	-0.7635	16.2700 
1276.982	0.1748	-0.1045	1.2446	7.4762	-1.6150	-0.4340	16.2500 
1276.982	0.1226	-0.0015	1.3008	7.2949	-1.4941	-0.6042	16.2500 
1276.982	0.0786	0.1025	1.1885	7.2455	-1.3184	-0.9448	16.2600 
1276.982	0.0781	0.1211	1.0205	7.2729	-1.2085	-1.2360	16.2600 
1276.982	0.0459	0.0698	0.8765	7.3169	-1.0547	-1.4557	16.2500 
1276.982	0.0220	0.0249	0.8330	7.2949	-0.7855	-1.7084	16.2600 
1276.999	0.0273	0.0649	0.7881	7.2894	-0.5054	-2.0380	16.2600 
1277.019	0.0483	0.1035	0.7935	7.3553	-0.2692	-2.3236	16.2700 
1277.130	0.0850	0.1006	0.8071	7.4268	-0.1593	-2.4170	16.2600 
1277.150	0.0957	0.0610	0.8311	7.4487	-0.1208	-2.3785	16.2500 
1277.150	0.0972	0.0938	0.9180	7.4432	-0.0330	-2.4115	16.2400 
1277.150	0.1069	0.1577	0.9443	7.4762	0.0824	-2.4884	16.2300 
1277.150	0.1299	0.1616	1.0020	7.4982	0.1538	-2.4060	16.2400 
1277.150	0.1538	0.1812	1.0059	7.4762	0.1923	-2.2467	16.2200 
1277.167	0.1709	0.1924	0.9976	7.4542	0.2307	-2.0709	16.2300 
1277.198	0.1543	0.1470	1.0054	7.4323	0.2856	-1.8512	16.2300 
1277.212	0.1333	0.1787	1.0322	7.4323	0.4449	-1.7303	16.2400 
1277.234	0.1147	0.1934	1.0591	7.4817	0.6152	-1.5381	16.2300 
1277.251	0.1138	0.1665	1.0269	7.5476	0.7306	-1.2030	16.2300 
1277.357	0.1431	0.2490	1.0229	7.6630	0.8899	-0.9503	16.2400 
1277.404	0.1738	0.2881	1.0151	7.8552	1.0107	-0.7141	16.2300 
1277.404	0.1650	0.2095	0.9619	8.0475	1.0602	-0.4175	16.2200 
1277.404	0.0986	0.1582	1.0103	8.2452	1.1810	-0.1868	16.2400 
1277.404	-0.1040	0.0425	1.2715	8.4485	1.4392	-0.0220	16.2500 
1277.404	-0.1089	0.1587	1.2349	8.7177	1.5875	0.0000	16.2600 
1277.404	-0.0977	0.1846	1.0903	9.0967	1.5106	0.2472	16.2200 
1277.517	-0.1055	0.0566	1.0269	9.2560	1.4227	0.6317	16.2400 
1277.517	-0.1685	0.0522	1.1411	9.2395	1.6479	0.7086	16.2200 
1277.553	-0.2100	0.0845	1.1909	9.2065	1.9446	0.6976	16.2200 
1277.554	-0.1987	0.0801	1.3008	9.1626	2.1698	0.8899	16.2400 
1277.554	-0.0986	0.1606	1.2534	9.1296	2.1808	1.2360	16.2500 
1277.554	0.0029	0.1396	1.0869	9.1132	1.9611	1.8237	16.2400 
1277.554	0.0269	0.0977	0.9995	9.0802	1.7358	2.4390	16.2400 
1277.554	0.0425	0.1753	0.8672	9.1187	1.6315	2.7960	16.2300 
1277.577	0.0313	0.2080	0.8179	9.2285	1.5765	3.0487	16.2300 
1277.595	0.0264	0.1978	0.7681	9.3274	1.5161	3.2904	16.2300 
1277.596	0.0254	0.2114	0.7524	9.3988	1.4667	3.4277	16.2300 
1277.615	0.0107	0.2476	0.8154	9.4318	1.4667	3.4442	16.2400 
1277.727	-0.0054	0.2139	0.8506	9.4153	1.4337	3.4937	16.2400 
1277.749	-0.0054	0.1479	0.8706	9.3329	1.3788	3.4772	16.2400 
1277.749	0.0161	0.1929	0.8823	9.2834	1.3843	3.2190	16.2500 
1277.749	0.0405	0.3032	0.9209	9.2999	1.4117	2.8180	16.2200 
1277.749	0.0454	0.3511	0.8887	9.3274	1.3843	2.4390	16.2300 
1277.749	0.0332	0.3208	0.9312	9.3109	1.3568	2.2522	16.2300 
1277.772	-0.0005	0.2305	0.9219	9.2340	1.3019	2.2302	16.2500 
1277.792	-0.0190	0.2788	1.0298	9.1187	1.3074	2.0819	16.2400 
1277.814	-0.0161	0.2842	1.0737	9.0308	1.2469	1.9666	16.2400 
1277.814	-0.0161	0.2490	1.0557	8.9758	1.0657	1.9556	16.2500 
1277.836	-0.0122	0.2954	1.0317	8.9868	0.8844	1.9226	16.2700 
1277.943	0.0093	0.3071	1.1035	9.0253	0.6921	1.9830	16.2400 
1277.964	0.0605	0.2979	1.2476	9.0088	0.4669	2.1588	16.2500 
1277.965	0.1880	0.2935	1.2866	9.0033	0.1044	2.4829	16.2500 
1277.965	0.1934	0.1494	1.2085	9.0253	-0.3900	2.9938	16.2400 
1277.965	0.1919	0.1177	1.1128	8.9813	-0.7196	3.4882	16.2600 
1277.965	0.1597	0.0474	1.1455	8.8660	-0.8459	4.0265	16.2600 
1277.983	0.1519	-0.1362	1.1489	8.5474	-0.9174	4.5264	16.2500 
1278.013	0.1475	-0.0498	1.1714	8.2288	-0.8734	4.5099	16.2400 
1278.032	0.0581	0.0479	1.2402	8.0804	-0.6427	4.0485	16.2500 
1278.032	0.0210	0.0547	1.1831	8.0035	-0.4724	3.6145	16.2700 
1278.054	0.0229	0.0420	1.0361	7.9376	-0.3571	3.2959	16.2400 
1278.156	0.0273	0.0303	0.9370	7.8662	-0.2472	3.0432	16.2400 
1278.165	0.0483	0.0894	0.8643	7.8607	-0.0659	2.7356	16.2600 
1278.165	0.1021	0.1030	0.7681	7.9102	0.0604	2.5598	16.2400 
1278.165	0.1021	0.0371	0.7461	7.9156	0.1648	2.5049	16.2500 
1278.166	0.0752	0.0874	0.8179	7.8937	0.3955	2.2028	16.2500 
1278.189	0.0703	0.1221	0.8677	7.8772	0.6427	1.8457	16.2500 
1278.208	0.0713	0.1025	0.9600	7.8058	0.8405	1.6589	16.2700 
1278.229	0.1025	0.1216	0.9927	7.6904	0.9613	1.5491	16.2500 
1278.244	0.1382	0.1338	0.9604	7.6025	0.9943	1.5216	16.2500 
1278.268	0.1387	0.1543	0.9819	7.5586	1.0547	1.4886	16.2600 
1278.364	0.1436	0.2427	0.9907	7.5916	1.1426	1.4227	16.2700 
1278.381	0.1479	0.2383	0.9980	7.6685	1.1920	1.4777	16.2600 
1278.381	0.1333	0.1943	1.0122	7.7179	1.2195	1.6644	16.2600 
1278.382	0.0991	0.1807	1.0356	7.7509	1.3019	1.8457	16.2700 
1278.382	0.0791	0.2202	1.0439	7.8333	1.4227	2.0215	16.2500 
1278.382	0.1177	0.2617	1.0244	7.9761	1.5106	2.2742	16.2600 
1278.409	0.2563	0.3232	0.9585	8.1354	1.5051	2.5983	16.2800 
1278.429	0.2676	0.2446	0.9639	8.2397	1.4886	2.9828	16.2800 
1278.443	0.0898	0.0811	0.9536	8.2727	1.6150	3.2300	16.2600 
1278.458	-0.0454	0.1235	1.0830	8.3771	2.0325	3.1696	16.2700 
1278.564	-0.1597	0.1636	1.3447	8.6902	2.3950	3.3179	16.2700 
1278.586	-0.0562	0.2603	1.2188	9.1296	2.4060	3.7738	16.2800 
1278.586	-0.0112	0.1172	1.0566	9.5691	2.1753	4.4604	16.3000 
1278.586	-0.0659	0.0679	1.0166	9.7284	2.1973	4.7571	16.2900 
1278.586	-0.2212	0.2524	1.0713	9.7449	2.6862	4.3286	16.2700 
1278.586	-0.3096	0.1567	1.2036	9.7174	3.1915	4.0924	16.2700 
1278.597	-0.2759	-0.0254	1.3228	9.5581	3.4167	4.2352	16.2800 
1278.627	-0.1353	0.1323	1.2974	9.3494	3.4058	4.3945	16.2900 
1278.646	0.0151	0.2612	1.0859	9.2560	3.1311	4.7406	16.2900 
1278.662	0.0625	0.2329	0.9614	9.2010	2.7246	5.3448	16.2900 
1278.765	0.0688	0.1694	0.8345	9.0747	2.3895	5.9875	16.3000 
1278.782	0.0493	0.1099	0.7959	8.8220	2.1753	6.4819	16.3000 
1278.782	0.0156	0.1470	0.7744	8.5364	2.0654	6.6083	16.2900 
1278.782	0.0049	0.1890	0.7573	8.3167	1.9720	6.4929	16.2900 
1278.782	-0.0107	0.1606	0.7876	8.1079	1.8567	6.3995	16.2800 
1278.782	-0.0176	0.1270	0.8613	7.8168	1.7633	6.3391	16.2900 
1278.803	0.0020	0.1143	0.9146	7.4817	1.6699	6.1853	16.2900 
1278.825	0.0303	0.1440	0.8750	7.2015	1.5436	5.8887	16.2900 
1278.844	0.0366	0.2139	0.9160	7.0532	1.4886	5.5096	16.2900 
1278.867	0.0176	0.2017	0.9390	6.9543	1.4667	5.2240	16.2800 
1278.974	-0.0283	0.1699	1.0034	6.8445	1.4996	5.0153	16.3000 
1279.003	-0.0430	0.2192	1.0190	6.7566	1.5710	4.6692	16.2900 
1279.003	-0.0259	0.2813	1.0054	6.7236	1.6150	4.2847	16.2900 
1279.003	0.0151	0.3003	1.0098	6.6742	1.5710	4.0540	16.2900 
1279.004	0.0195	0.2734	1.0562	6.5643	1.4996	4.0100	16.3000 
1279.004	-0.0103	0.2666	1.0454	6.4655	1.3788	4.0485	16.3000 
1279.004	-0.0200	0.2935	1.0190	6.4160	1.1975	4.1254	16.3000 
1279.023	0.0142	0.2930	0.9927	6.3391	0.9778	4.2957	16.3000 
1279.043	0.0630	0.2891	1.1211	6.2073	0.7251	4.5593	16.3000 
1279.064	0.1470	0.1641	1.2861	6.0370	0.3351	5.1141	16.3000 
1279.084	0.1724	0.0957	1.2148	5.9711	-0.2087	5.7788	16.3100 
1279.100	0.1670	-0.0454	1.2007	5.8942	-0.6042	6.4435	16.3100 
1279.188	0.1650	-0.1699	1.2881	5.6415	-0.7635	7.1466	16.3000 
1279.218	0.1382	-0.2510	1.3501	5.3284	-0.7910	7.6355	16.3100 
1279.218	0.1270	-0.1348	1.2451	5.1196	-0.8075	7.5861	16.3000 
1279.218	0.0576	-0.0762	1.2783	5.0317	-0.6757	7.2345	16.3000 
1279.218	0.0273	-0.0444	1.2612	5.0153	-0.5109	6.8060	16.3100 
1279.218	0.0898	0.1646	1.0376	5.1581	-0.4010	6.2402	16.2900 
1279.243	0.1147	0.0972	0.8936	5.3448	-0.3900	5.9930	16.2800 
1279.265	0.0762	-0.0977	0.7559	5.4053	-0.3406	5.9766	16.3100 
1279.265	0.0435	-0.0112	0.8120	5.4712	-0.0055	5.5536	16.2900 
1279.285	0.0518	0.0864	0.8784	5.6415	0.3296	5.0592	16.2900 
1279.301	0.0669	0.0122	0.8252	5.7843	0.4449	4.8944	16.2900 
1279.321	0.1001	0.0420	0.8174	5.8832	0.5109	4.7900	16.2800 
1279.423	0.1240	0.1152	0.8853	5.9930	0.6317	4.6088	16.2900 
1279.432	0.1372	0.0806	0.9170	6.0370	0.6866	4.5648	16.2700 
1279.432	0.1270	0.0635	0.9575	6.0150	0.7416	4.5374	16.2900 
1279.432	0.1357	0.1753	0.9385	6.0590	0.8185	4.3286	16.2700 
1279.432	0.1479	0.2202	0.9355	6.1908	0.9009	4.1309	16.2900 
1279.450	0.1470	0.2075	0.9707	6.3171	0.9668	4.1144	16.2900 
1279.463	0.1470	0.1880	0.9878	6.3940	0.9998	4.1913	16.2700 
1279.568	0.1147	0.1631	0.9849	6.4490	1.0492	4.2627	16.2600 
1279.598	0.0928	0.1558	0.9814	6.5204	1.1371	4.2792	16.2900 
1279.598	0.1050	0.2529	1.0142	6.6357	1.2689	4.2407	16.2800 
1279.598	0.1406	0.2646	1.0283	6.7896	1.3403	4.3616	16.2700 
1279.598	0.1948	0.2051	1.0132	6.9049	1.2799	4.7296	16.2800 
1279.598	0.1899	0.2109	1.0352	7.0038	1.2579	5.0427	16.2900 
1279.618	0.1255	0.2354	0.9888	7.1631	1.3184	5.1965	16.2600 
1279.640	0.0181	0.1792	1.1006	7.3773	1.4886	5.4218	16.2800 
1279.659	-0.0659	0.0620	1.3921	7.6080	1.7688	5.7843	16.2900 
1279.660	-0.0063	0.2119	1.2949	7.8937	1.9336	5.9821	16.2800 
1279.682	-0.0439	0.1313	1.1509	8.2452	1.9501	6.1743	16.2700 
1279.803	-0.1211	-0.0088	0.9561	8.3716	2.0435	6.1798	16.2700 
1279.813	-0.1777	0.0977	0.9727	8.3331	2.6422	5.4602	16.2800 
1279.813	-0.2539	0.1348	1.2974	8.2178	3.3344	4.9933	16.2800 
1279.813	-0.2119	0.0190	1.3457	7.9486	3.5156	5.0098	16.2700 
1279.813	-0.0718	0.1177	1.2021	7.6959	3.3893	5.0372	16.2800 
1279.813	-0.0259	0.1577	1.0884	7.5696	3.1366	5.1855	16.2900 
1279.838	-0.0005	0.0527	0.9868	7.3883	2.8345	5.5206	16.2800 
1279.860	-0.0088	0.0684	0.9517	7.1741	2.6532	5.6964	16.2900 
1279.883	0.0225	0.1426	0.8433	7.0587	2.4554	5.7788	16.2700 
1279.884	0.0298	0.1362	0.7876	6.9708	2.1808	5.8942	16.2700 
1279.898	0.0308	0.1387	0.7646	6.8719	1.9006	5.9821	16.2600 
1280.002	0.0249	0.1528	0.8184	6.7566	1.6919	6.0425	16.2800 
1280.013	0.0181	0.0938	0.8652	6.5808	1.4722	6.1578	16.2700 
1280.014	0.0220	0.0645	0.8911	6.3831	1.2799	6.2183	16.2600 
1280.014	0.0288	0.1274	0.9253	6.2732	1.1261	6.0480	16.2600 
1280.014	0.0469	0.2109	0.9658	6.2457	1.0107	5.7623	16.2600 
1280.038	0.0410	0.2197	0.9717	6.2842	0.8514	5.6415	16.2700 
1280.060	0.0381	0.1782	0.9097	6.3116	0.6537	5.6195	16.2500 
1280.072	0.0132	0.2231	0.9478	6.3391	0.5823	5.4492	16.2600 
1280.089	0.0005	0.2324	0.9995	6.3666	0.5219	5.2130	16.2600 
1280.106	0.0400	0.2456	1.0581	6.3885	0.3680	4.9713	16.2700 
1280.230	0.0347	0.2456	1.0840	6.4380	0.1758	4.8010	16.2800 
1280.251	-0.0073	0.2354	1.0244	6.5259	-0.0385	4.6692	16.2700 
1280.251	-0.0288	0.2241	1.0894	6.6028	-0.1868	4.5978	16.2700 
1280.251	0.0244	0.2329	1.1309	6.6632	-0.3735	4.6307	16.2700 
1280.251	0.0874	0.2290	1.2534	6.7181	-0.6427	4.7845	16.2800 
1280.251	0.2500	0.2383	1.2134	6.7841	-1.0931	5.0482	16.2700 
1280.251	0.2505	0.1309	1.1567	6.8939	-1.5765	5.4163	16.2700 
1280.264	0.2349	0.0127	1.0718	6.9489	-1.8951	5.8228	16.2600 
1280.284	0.1851	-0.0742	1.1978	6.8774	-1.9281	6.2952	16.2700 
1280.298	0.1826	-0.2080	1.3247	6.6138	-1.9006	6.7841	16.2500 
1280.320	0.1924	-0.0859	1.2485	6.3885	-1.8951	6.7072	16.2700 
1280.334	0.1108	0.0396	1.2881	6.3391	-1.7908	6.2512	16.2600 
1280.354	0.0615	0.0396	1.2051	6.3391	-1.6699	5.8173	16.2600 
1280.458	0.1001	0.1548	0.9521	6.3940	-1.5051	5.3284	16.2500 
1280.477	0.1118	0.1313	0.8345	6.5149	-1.3074	4.9493	16.2600 
1280.477	0.0884	-0.0269	0.6875	6.5863	-1.0767	4.8175	16.2500 
1280.477	0.0376	-0.0122	0.7100	6.6028	-0.6427	4.4824	16.2400 
1280.477	0.0420	0.1191	0.8042	6.6797	-0.1154	3.8452	16.2500 
1280.477	0.0449	0.0366	0.8198	6.7456	0.2417	3.4442	16.2500 
1280.495	0.0498	0.0317	0.9165	6.7291	0.5328	3.1750	16.2300 
1280.517	0.0845	0.1094	1.0078	6.7291	0.8350	2.8839	16.2400 
1280.603	0.1372	0.0972	0.9785	6.7401	0.9119	2.8125	16.2600 
1280.631	0.1558	0.1045	0.9673	6.7346	0.9338	2.8125	16.2500 
1280.631	0.1582	0.1475	0.9897	6.7566	1.0272	2.7246	16.2500 
1280.631	0.1338	0.1943	1.0454	6.8500	1.1591	2.6862	16.2600 
1280.631	0.1069	0.1748	1.0352	6.9543	1.2415	2.7686	16.2500 
1280.654	0.0859	0.1914	1.0220	7.0642	1.3458	2.8564	16.2600 
1280.674	0.0972	0.2207	1.0293	7.1960	1.4557	3.0103	16.2500 
1280.694	0.1064	0.1699	1.0386	7.3004	1.5326	3.3344	16.2500 
1280.709	0.1416	0.1978	1.0293	7.4103	1.5985	3.6420	16.2600 
1280.830	0.2095	0.2808	1.0396	7.5751	1.6864	3.8782	16.2400 
1280.849	0.2261	0.2617	0.9878	7.7289	1.7139	4.1364	16.2400 
1280.849	0.1411	0.2036	0.9932	7.8333	1.8402	4.2682	16.2500 
1280.849	0.0234	0.1592	1.1499	7.9211	2.1478	4.2957	16.2400 
1280.849	-0.0854	0.2095	1.2988	8.0750	2.4829	4.2023	16.2400 
1280.849	-0.0562	0.3071	1.0933	8.4210	2.5159	4.1858	16.2500 
1280.850	-0.0815	0.0625	0.9819	8.6792	2.4609	4.5044	16.2600 
1280.870	-0.1265	0.0591	0.9375	8.7506	2.6202	4.3890	16.2500 
1280.891	-0.2505	0.0884	1.1040	8.7067	3.0817	3.8892	16.2600 
1280.917	-0.3027	0.0386	1.1455	8.6188	3.4607	3.4607	16.2500 
1280.917	-0.2568	0.1738	1.2178	8.4869	3.7189	3.1531	16.2400 
1280.931	-0.1440	0.2056	1.2197	8.3386	3.6749	3.2520	16.2400 
1281.027	-0.0029	0.0098	1.0254	8.0969	3.2684	3.8177	16.2400 
1281.049	0.0190	0.0347	0.9668	7.8882	2.9718	4.1913	16.2300 
1281.049	0.0098	0.1870	0.8999	7.8387	2.8015	4.2957	16.2400 
1281.049	-0.0244	0.1553	0.8491	7.8058	2.6038	4.4769	16.2400 
1281.049	-0.0200	0.1792	0.8462	7.7509	2.4170	4.6472	16.2400 
1281.070	0.0063	0.2354	0.8340	7.7563	2.1918	4.7681	16.2400 
1281.090	0.0352	0.2085	0.8364	7.7563	1.8951	4.9274	16.2400 
1281.113	0.0591	0.1929	0.8257	7.6849	1.6095	4.9988	16.2400 
1281.135	0.0508	0.1763	0.8618	7.5696	1.4337	4.9109	16.2400 
1281.135	0.0322	0.1963	0.8877	7.4597	1.3953	4.6417	16.2300 
1281.230	0.0107	0.2612	0.9478	7.4048	1.4172	4.2572	16.2500 
1281.248	0.0088	0.2969	0.9482	7.3883	1.4063	3.8782	16.2400 
1281.248	-0.0107	0.2437	0.9824	7.3499	1.3678	3.6475	16.2600 
1281.248	-0.0098	0.2446	0.9893	7.2839	1.3074	3.4222	16.2500 
1281.248	0.0142	0.2944	1.0527	7.2290	1.2469	3.0981	16.2700 
1281.265	0.0190	0.2813	1.1045	7.1906	1.1371	2.8345	16.2400 
1281.282	-0.0107	0.2363	1.0986	7.1851	1.0052	2.6367	16.2700 
1281.308	-0.0190	0.2603	1.0825	7.2345	0.8844	2.3895	16.2700 
1281.330	-0.0420	0.2905	1.0830	7.3389	0.8130	2.1973	16.2600 
1281.331	-0.0073	0.2690	1.1489	7.4323	0.7141	2.1533	16.2600 
1281.352	0.0947	0.2466	1.3066	7.5092	0.5493	2.2467	16.2500 
1281.372	0.1406	0.2319	1.2310	7.6575	0.2472	2.3785	16.2600 
1281.387	0.1211	0.1313	1.1519	7.8113	-0.0385	2.5543	16.2600 
1281.407	0.1519	0.1406	1.1055	7.9156	-0.1538	2.7026	16.2700 
1281.505	0.1660	0.0190	1.0972	7.8662	-0.2582	3.1091	16.2700 
1281.513	0.2002	-0.0913	1.0439	7.6575	-0.3625	3.3838	16.2700 
1281.513	0.1865	-0.0337	1.0928	7.4707	-0.2966	3.0707	16.2700 
1281.514	0.0498	-0.0464	1.2188	7.3553	-0.0714	2.4939	16.2700 
1281.514	-0.0059	0.0210	1.2114	7.2894	0.2142	1.7084	16.2600 
1281.530	0.0005	0.1641	1.0825	7.2949	0.4120	0.9558	16.2600 
1281.547	0.0356	0.1431	0.9336	7.3169	0.4395	0.5713	16.2600 
1281.571	0.0752	0.0151	0.7661	7.2675	0.4285	0.4559	16.2600 
1281.587	0.0767	0.0083	0.7559	7.1851	0.5219	0.2032	16.2400 
1281.606	0.0698	0.1143	0.8145	7.1796	0.7471	-0.2966	16.2600 
1281.626	0.0518	0.1045	0.8408	7.1960	0.9448	-0.7306	16.2400 
1281.714	0.0654	0.1084	0.8813	7.1796	1.0876	-1.0272	16.2500 
1281.747	0.0791	0.0918	0.9204	7.0917	1.1700	-1.1865	16.2500 
1281.748	0.1006	0.0566	0.9565	6.9379	1.2030	-1.2854	16.2500 
1281.748	0.1196	0.1338	0.9849	6.8390	1.2524	-1.4996	16.2500 
1281.748	0.1289	0.1748	1.0391	6.7896	1.2854	-1.6699	16.2400 
1281.768	0.1411	0.1924	1.0151	6.7621	1.2744	-1.7578	16.2400 
1281.768	0.1270	0.1943	1.0332	6.7676	1.2854	-1.7633	16.2500 
1281.790	0.0981	0.1616	1.0356	6.7621	1.3458	-1.6974	16.2500 
1281.814	0.0698	0.1826	1.0464	6.7731	1.4777	-1.6260	16.2300 
1281.942	0.0723	0.2222	1.0288	6.8719	1.6040	-1.4941	16.2400 
1281.964	0.1245	0.2827	1.0088	7.0422	1.7029	-1.2469	16.2400 
1281.964	0.1792	0.3193	1.0264	7.2180	1.7743	-0.9009	16.2200 
1281.964	0.1724	0.1821	1.0112	7.3499	1.8292	-0.4340	16.2300 
1281.964	0.0640	0.0840	1.0332	7.4432	2.0654	-0.0989	16.2500 
1281.964	-0.1387	0.1123	1.3721	7.6355	2.6202	-0.1154	16.2200 
1281.964	-0.0996	0.3081	1.2451	8.0090	2.9993	-0.2197	16.2300 
1281.980	-0.1011	0.1602	0.9946	8.4375	3.0597	0.0275	16.2200 
1282.075	-0.1260	-0.0269	0.9063	8.5803	3.1750	0.2527	16.2200 
1282.105	-0.2046	0.1060	1.0923	8.5419	3.6475	-0.0659	16.2200 
1282.105	-0.2422	0.0596	1.1904	8.4760	4.0485	-0.3131	16.2300 
1282.105	-0.2251	-0.0044	1.2891	8.3386	4.0759	-0.2802	16.2200 
1282.105	-0.1519	0.1826	1.2451	8.2452	3.9331	-0.2472	16.2200 
1282.105	-0.0591	0.1602	1.1328	8.2507	3.5266	0.2307	16.2100 
1282.126	-0.0029	0.0889	1.0181	8.1958	2.9828	1.0272	16.2200 
1282.127	0.0337	0.1401	0.8843	8.1024	2.5543	1.7358	16.2200 
1282.146	0.0503	0.2231	0.7983	8.0200	2.1863	2.2687	16.2200 
1282.166	0.0283	0.1279	0.7427	7.9156	1.8182	2.8564	16.2300 
1282.188	0.0005	0.0767	0.7207	7.7454	1.4941	3.4003	16.2300 
1282.202	0.0010	0.2197	0.7939	7.6190	1.3348	3.6145	16.2100 
1282.303	0.0107	0.2397	0.8481	7.5421	1.1591	3.8562	16.2200 
1282.313	0.0366	0.1626	0.8623	7.3499	0.8679	4.3176	16.2100 
1282.313	0.0425	0.1348	0.8882	7.1301	0.6372	4.6088	16.2100 
1282.313	0.0293	0.2134	0.8804	7.0422	0.5438	4.5374	16.2200 
1282.313	0.0146	0.2983	0.9248	7.0313	0.5054	4.4769	16.2100 
1282.334	0.0024	0.2437	0.9551	6.9653	0.4065	4.6582	16.2100 
1282.362	0.0083	0.2427	1.0503	6.8390	0.2911	4.8450	16.2300 
1282.382	0.0210	0.2520	1.1030	6.7291	0.1263	5.0153	16.2200 
1282.396	0.0298	0.2163	1.1230	6.6687	-0.0879	5.1910	16.2200 
1282.508	0.0464	0.2798	1.1040	6.7181	-0.3076	5.2295	16.2200 
1282.531	0.0298	0.2959	1.0840	6.8555	-0.5383	5.3394	16.2100 
1282.531	0.0508	0.3042	1.0713	7.0093	-0.7855	5.4767	16.2100 
1282.531	0.1265	0.2432	1.2178	7.1191	-1.0327	5.7019	16.2100 
1282.531	0.1958	0.2329	1.2310	7.2290	-1.3403	6.0260	16.2300 
1282.531	0.1855	0.1470	1.1929	7.4213	-1.6589	6.4050	16.2200 
1282.531	0.2109	0.0635	1.1792	7.5256	-1.8787	6.8060	16.2100 
1282.546	0.2700	0.0122	1.1973	7.5201	-1.9281	7.2729	16.2100 
1282.561	0.2798	-0.1069	1.2104	7.3828	-1.9556	7.8882	16.2100 
1282.581	0.2231	-0.1348	1.1587	7.1301	-1.9061	8.1189	16.2200 
1282.603	0.1094	-0.0103	1.2417	6.9653	-1.5436	7.6959	16.2000 
1282.708	0.0073	0.0610	1.2725	6.9049	-1.1261	7.1741	16.2200 
1282.731	0.0376	0.1079	1.0879	6.8884	-0.8734	6.7786	16.2200 
1282.731	0.1025	0.1016	0.8442	6.9489	-0.7306	6.5698	16.2100 
1282.731	0.1089	0.0059	0.7471	6.9708	-0.5933	6.5479	16.2100 
1282.731	0.1025	0.0391	0.7480	6.9708	-0.3076	6.3391	16.2100 
1282.731	0.0918	0.0869	0.7813	7.0148	0.0604	5.8777	16.2100 
1282.761	0.0952	0.0786	0.8096	7.0697	0.3625	5.4437	16.2100 
1282.781	0.0933	0.0684	0.8628	7.1027	0.6152	5.0702	16.2100 
1282.781	0.1089	0.0693	0.9263	7.1027	0.8075	4.7351	16.2100 
1282.802	0.1177	0.0605	0.9688	7.0752	0.9613	4.4604	16.2100 
1282.823	0.1694	0.1367	0.9668	7.0972	1.0437	4.1309	16.2100 
1282.838	0.1733	0.1938	1.0015	7.2015	1.1041	3.7848	16.2100 
1282.926	0.1592	0.1841	1.0024	7.3334	1.1206	3.5266	16.2100 
1282.958	0.1548	0.2007	0.9956	7.4652	1.1536	3.3179	16.2100 
1282.958	0.1323	0.2158	1.0020	7.5970	1.2360	3.1531	16.2200 
1282.958	0.1079	0.1826	1.0146	7.7124	1.3184	3.1091	16.2200 
1282.958	0.1040	0.2227	1.0410	7.8387	1.4227	3.0762	16.2100 
1282.977	0.1489	0.2998	1.0425	8.0255	1.5161	3.0597	16.2100 
1282.999	0.2559	0.3262	1.0039	8.2397	1.5106	3.1915	16.2200 
1283.024	0.2598	0.2383	0.9976	8.3881	1.4777	3.3948	16.2300 
1283.024	0.0894	0.1172	1.0420	8.4650	1.6644	3.4277	16.2200 
1283.038	-0.0459	0.1450	1.2041	8.6078	2.1259	3.1915	16.2100 
1283.144	-0.1313	0.1611	1.4585	8.8550	2.6807	2.9773	16.2100 
1283.175	-0.0059	0.3677	1.1914	9.2615	2.8290	2.8839	16.2000 
1283.176	0.0117	0.1963	1.0728	9.6295	2.8180	3.1915	16.2000 
1283.176	-0.0615	0.0166	0.8428	9.7119	2.9718	3.0927	16.1900 
1283.176	-0.1807	0.1045	1.0264	9.6790	3.6639	2.3236	16.2100 
1283.176	-0.3228	-0.0005	1.1953	9.5636	4.1693	1.6974	16.2000 
1283.198	-0.2959	0.0439	1.2593	9.3604	4.4330	1.1920	16.2000 
1283.199	-0.1567	0.2163	1.2202	9.2175	4.4110	1.0107	16.2100 
1283.220	-0.0771	0.1362	1.1006	9.0857	4.0924	1.2799	16.2100 
1283.240	-0.0313	0.0781	0.9829	8.9209	3.8013	1.5161	16.2000 
1283.255	0.0068	0.1748	0.9204	8.8220	3.6365	1.5216	16.2000 
1283.360	0.0293	0.1577	0.7871	8.7836	3.4003	1.5930	16.2000 
1283.379	0.0127	0.1416	0.7314	8.7122	3.1696	1.5985	16.1800 
1283.379	-0.0088	0.2251	0.7520	8.6737	3.0432	1.4117	16.1900 
1283.379	0.0039	0.2285	0.7832	8.6243	2.8894	1.2799	16.1900 
1283.379	0.0161	0.1636	0.8340	8.5034	2.6697	1.2909	16.1900 
1283.379	0.0146	0.1318	0.8643	8.3496	2.4445	1.2799	16.1800 
1283.397	0.0078	0.1611	0.8945	8.2123	2.2906	1.0382	16.1800 
1283.417	0.0215	0.2573	0.9248	8.1354	2.2247	0.6207	16.1800 
1283.437	0.0337	0.3296	0.9463	8.1079	2.1588	0.3186	16.1800 
1283.454	0.0161	0.2344	0.9697	8.0090	2.0819	0.2252	16.1700 
1283.474	-0.0166	0.2373	1.0562	7.8497	2.1149	-0.0714	16.2000 
1283.563	-0.0176	0.2827	1.1006	7.7673	2.1698	-0.5273	16.1900 
1283.575	-0.0396	0.2144	1.0918	7.7618	2.1313	-0.8954	16.1800 
1283.575	-0.0669	0.2212	1.0781	7.8058	2.1039	-1.2579	16.1800 
1283.575	-0.0781	0.2979	1.0874	7.9211	2.0984	-1.5875	16.1800 
1283.575	-0.0679	0.2734	1.0806	8.0640	1.9940	-1.6479	16.1900 
1283.595	0.0039	0.2681	1.2041	8.1848	1.7963	-1.5546	16.1900 
1283.617	0.0879	0.2705	1.2881	8.3112	1.4996	-1.3348	16.1800 
1283.711	0.1226	0.1919	1.1372	8.4650	1.0822	-0.9558	16.1800 
1283.733	0.1582	0.1543	1.1318	8.5474	0.7965	-0.5164	16.1600 
1283.733	0.1943	0.0317	1.0269	8.5529	0.5164	0.0549	16.1600 
1283.733	0.1797	-0.0674	1.0640	8.4320	0.3461	0.6976	16.1800 
1283.733	0.1899	-0.0142	1.1538	8.1848	0.3790	0.8899	16.1800 
1283.733	0.1250	-0.0083	1.2642	7.9816	0.5548	0.6921	16.1700 
1283.753	-0.0083	0.0371	1.2964	7.8937	0.8185	0.2197	16.1800 
1283.777	-0.0488	0.1226	1.2603	7.8772	1.1536	-0.3735	16.1800 
1283.794	0.0156	0.1191	0.9966	7.8992	1.2909	-0.7251	16.1600 
1283.814	0.0552	0.0811	0.8350	7.9376	1.3678	-0.8624	16.1700 
1283.835	0.0845	0.1040	0.7617	8.0145	1.5546	-1.0272	16.1800 
1283.856	0.0752	0.0962	0.7466	8.1079	1.7798	-1.2579	16.1600 
1283.874	0.0508	0.1016	0.7192	8.1683	1.9995	-1.6150	16.1500 
1283.972	0.0386	0.1636	0.7446	8.2233	2.2357	-2.0984	16.1800 
1283.993	0.0420	0.1938	0.8125	8.2343	2.4225	-2.4774	16.1600 
1283.993	0.0669	0.1016	0.8892	8.1079	2.4994	-2.5928	16.1700 
1283.993	0.0918	0.1187	0.9614	7.9376	2.5708	-2.6807	16.1700 
1283.993	0.1250	0.2036	0.9863	7.8552	2.6093	-2.7740	16.1600 
1283.993	0.1440	0.2212	0.9971	7.7728	2.6312	-2.7850	16.1800 
1284.013	0.1411	0.1890	1.0547	7.6520	2.6862	-2.7136	16.1700 
1284.032	0.1094	0.1807	1.0830	7.5366	2.8125	-2.6422	16.1800 
1284.051	0.0313	0.1650	1.1372	7.4652	3.0048	-2.5543	16.1700 
1284.072	0.0073	0.1748	1.1230	7.4542	3.1860	-2.4664	16.1700 
1284.162	0.0869	0.3506	1.0698	7.5476	3.3508	-2.4115	16.1700 
1284.180	0.1558	0.3657	1.0278	7.6959	3.4222	-2.1149	16.1900 
1284.180	0.1660	0.1992	0.9663	7.7344	3.4497	-1.7139	16.1800 
1284.180	0.0718	0.1460	1.0112	7.7289	3.6639	-1.5875	16.1600 
1284.180	-0.1328	0.1421	1.2690	7.8058	4.1034	-1.7358	16.1700 
1284.196	-0.1577	0.1978	1.2290	7.9761	4.4000	-1.8347	16.1700 
1284.214	-0.1655	0.1104	1.0195	8.2452	4.4110	-1.6754	16.1800 
1284.232	-0.2329	-0.1069	1.0093	8.3771	4.5044	-1.6040	16.1700 
1284.254	-0.2993	0.0928	1.1265	8.4100	4.8999	-2.1698	16.1700 
1284.275	-0.2998	0.1860	1.2559	8.4155	5.2405	-2.5214	16.1800 
1284.398	-0.2295	0.0376	1.2642	8.3331	5.1965	-2.2906	16.1800 
1284.409	-0.1177	0.1631	1.1968	8.2507	5.0098	-1.9885	16.1800 
1284.409	-0.0171	0.1904	1.1055	8.2343	4.6692	-1.4502	16.1900 
1284.409	0.0176	0.1255	0.9814	8.1573	4.2297	-0.7361	16.1800 
1284.409	0.0000	0.1401	0.8125	8.0365	3.9331	-0.1923	16.1600 
1284.409	-0.0308	0.1841	0.7563	7.9376	3.7518	0.1758	16.1800 
1284.409	-0.0503	0.1108	0.7192	7.8058	3.5815	0.5768	16.1600 
1284.430	-0.0332	0.1445	0.7124	7.6190	3.4167	0.8789	16.1600 
1284.455	-0.0132	0.1929	0.8027	7.4597	3.2574	1.1810	16.1700 
1284.546	-0.0010	0.1401	0.8311	7.2620	3.0322	1.5765	16.1500 
1284.562	0.0059	0.1729	0.8984	7.0587	2.8729	1.7798	16.1700 
1284.562	0.0073	0.2202	0.9185	6.9379	2.7850	1.7688	16.1500 
1284.562	-0.0093	0.2192	0.9004	6.8719	2.6971	1.6974	16.1500 
1284.562	-0.0327	0.2578	0.9136	6.8390	2.6477	1.5546	16.1500 
1284.587	-0.0688	0.2642	0.9819	6.8170	2.6367	1.4392	16.1500 
1284.605	-0.0767	0.2441	1.0234	6.7621	2.5708	1.4063	16.1600 
1284.630	-0.0547	0.2764	1.1108	6.6907	2.4609	1.3898	16.1500 
1284.650	-0.0386	0.2505	1.1299	6.6412	2.2797	1.4832	16.1600 
1284.651	-0.0562	0.1851	1.1187	6.6193	2.0654	1.7084	16.1500 
1284.741	-0.0825	0.2241	1.1089	6.6412	1.9226	1.9336	16.1600 
1284.763	0.0107	0.3252	1.1240	6.7511	1.7523	2.2083	16.1700 
1284.763	0.0991	0.2417	1.2280	6.8774	1.4557	2.7466	16.1500 
1284.763	0.2041	0.1626	1.2427	6.9928	1.0382	3.4113	16.1500 
1284.763	0.1929	0.1191	1.1450	7.1686	0.6207	3.9661	16.1600 
1284.788	0.2144	0.1777	1.1294	7.3114	0.4285	4.3176	16.1500 
1284.807	0.1943	-0.0117	1.1670	7.3059	0.2472	5.0372	16.1700 
1284.808	0.1494	-0.2676	1.1777	7.0313	0.0714	5.8887	16.1700 
1284.827	0.0776	-0.0830	1.2690	6.8390	0.2417	5.6580	16.1500 
1284.848	0.0142	0.1406	1.3813	6.8280	0.6647	4.8285	16.1500 
1284.949	0.0176	0.0620	1.2051	6.8225	0.7855	4.4934	16.1500 
1284.983	0.0625	0.0889	1.0488	6.7841	0.8514	4.2572	16.1500 
1284.983	0.0806	0.1016	0.8413	6.8060	0.9833	4.0320	16.1500 
1284.983	0.0781	0.0386	0.7739	6.8225	1.2085	3.8892	16.1500 
1284.984	0.0728	0.0688	0.7832	6.8225	1.5491	3.5925	16.1500 
1284.984	0.0732	0.1011	0.7827	6.8555	1.8951	3.1970	16.1500 
1285.006	0.0454	0.0449	0.7729	6.8719	2.1808	2.8455	16.1400 
1285.029	0.0293	0.0869	0.8149	6.8500	2.4994	2.4170	16.1500 
1285.029	0.0356	0.0952	0.9194	6.7896	2.7740	2.1039	16.1500 
1285.046	0.0508	0.0498	0.9048	6.6797	2.9114	1.9611	16.1600 
1285.069	0.1084	0.1553	0.9233	6.6412	3.0103	1.7523	16.1600 
1285.089	0.1338	0.2104	0.9517	6.6907	3.0652	1.5875	16.1600 
1285.109	0.1318	0.1563	1.0044	6.6907	3.0652	1.5985	16.1600 
1285.227	0.0874	0.1304	1.0225	6.6797	3.1146	1.5930	16.1600 
1285.251	0.0239	0.1758	1.0972	6.7236	3.2629	1.4996	16.1400 
1285.251	0.0161	0.1567	1.1094	6.8335	3.3728	1.5381	16.1400 
1285.251	0.0933	0.2388	1.0630	7.0093	3.4167	1.6644	16.1300 
1285.251	0.1816	0.3345	1.0337	7.2565	3.4332	1.8182	16.1400 
1285.251	0.1958	0.1997	0.9692	7.5037	3.3893	2.1478	16.1400 
1285.251	0.0659	0.0601	0.9883	7.6959	3.4772	2.4500	16.1400 
1285.268	-0.2119	0.0234	1.3564	7.9376	3.9276	2.3126	16.1400 
1285.365	-0.1929	0.3237	1.2705	8.3441	4.2792	1.9061	16.1500 
1285.378	-0.1660	0.1382	1.0688	8.7616	4.2902	2.0435	16.1300 
1285.378	-0.2080	-0.1133	0.9336	8.8550	4.3396	2.2028	16.1400 
1285.378	-0.2783	0.1904	1.1743	8.8440	4.8615	1.7633	16.1300 
1285.378	-0.2715	0.1455	1.3149	8.8165	5.1526	1.7578	16.1500 
1285.403	-0.1401	0.0225	1.2822	8.6792	4.9933	2.1698	16.1300 
1285.404	-0.0537	0.1987	1.2310	8.5858	4.7406	2.4884	16.1400 
1285.427	0.0200	0.2388	1.0229	8.6243	4.3341	2.9883	16.1400 
1285.445	0.0234	0.1196	0.9409	8.6078	3.9001	3.7244	16.1400 
1285.466	-0.0020	0.1470	0.8130	8.4760	3.6420	4.1968	16.1300 
1285.482	-0.0063	0.2363	0.7803	8.3826	3.5321	4.4000	16.1300 
1285.570	0.0010	0.1533	0.7437	8.2672	3.3344	4.6912	16.1400 
1285.578	0.0156	0.1460	0.7139	8.0914	3.1256	4.9164	16.1400 
1285.578	0.0083	0.2163	0.7993	7.9211	3.0157	4.8889	16.1300 
1285.578	0.0044	0.1934	0.8311	7.7289	2.9169	4.8395	16.1300 
1285.601	-0.0220	0.1313	0.8413	7.4982	2.7960	4.8010	16.1400 
1285.623	-0.0371	0.1636	0.8208	7.3334	2.6971	4.5923	16.1500 
1285.642	-0.0508	0.2119	0.8716	7.2620	2.6477	4.2572	16.1500 
1285.642	-0.0469	0.2402	0.9673	7.2235	2.5763	3.9606	16.1300 
1285.669	-0.0356	0.2217	1.0122	7.1906	2.4280	3.7793	16.1200 
1285.683	-0.0640	0.1914	0.9966	7.2070	2.2412	3.5980	16.1300 
1285.773	-0.0635	0.2041	1.0225	7.2675	2.0874	3.3453	16.1300 
1285.798	-0.0366	0.2856	1.0757	7.3938	1.9116	3.1531	16.1300 
1285.798	-0.0156	0.2876	1.0415	7.5476	1.5875	3.1641	16.1400 
1285.798	0.0449	0.3013	1.0684	7.6630	1.2415	3.2629	16.1300 
1285.798	0.0952	0.2915	1.1758	7.7948	0.8844	3.4167	16.1500 
1285.818	0.1807	0.2261	1.2974	7.9266	0.4559	3.6530	16.1400 
1285.838	0.1963	0.1934	1.2329	8.1354	-0.0055	3.8617	16.1400 
1285.862	0.2090	0.1357	1.1885	8.2233	-0.2637	4.0485	16.1300 
1285.884	0.2554	0.1221	1.1504	8.2068	-0.4010	4.3451	16.1300 
1285.884	0.1904	-0.1831	1.1387	7.9431	-0.4779	4.9274	16.1500 
1285.990	0.1089	-0.3125	1.1626	7.5696	-0.4120	5.2185	16.1400 
1286.014	-0.0503	0.0288	1.5098	7.4048	0.1538	4.3011	16.1300 
1286.014	-0.0547	0.1948	1.4961	7.4048	0.4999	3.5431	16.1500 
1286.014	0.0991	0.1724	1.1440	7.4048	0.3571	3.4772	16.1500 
1286.014	0.1328	0.0508	1.0356	7.3224	0.1978	3.7189	16.1300 
1286.014	0.1094	0.0190	0.8081	7.2455	0.2472	3.7463	16.1400 
1286.030	0.0664	0.0737	0.8130	7.2510	0.5603	3.4772	16.1200 
1286.058	0.0430	0.0947	0.7451	7.2949	0.8844	3.1311	16.1300 
1286.079	0.0469	0.1113	0.7007	7.3114	1.1206	2.8235	16.1500 
1286.079	0.0688	0.1226	0.7681	7.2784	1.3129	2.5708	16.1400 
1286.101	0.0659	0.0488	0.8394	7.1411	1.4502	2.4939	16.1300 
1286.209	0.0610	0.0171	0.8638	6.9489	1.5820	2.4664	16.1500 
1286.230	0.0767	0.0938	0.8447	6.8665	1.7194	2.3346	16.1300 
1286.230	0.1001	0.1401	0.9160	6.8610	1.8127	2.3071	16.1400 
1286.230	0.1172	0.1455	0.9526	6.8610	1.8347	2.4225	16.1500 
1286.230	0.1265	0.1694	1.0439	6.9104	1.8512	2.6312	16.1500 
1286.230	0.1270	0.1802	1.0420	7.0148	1.8292	2.9224	16.1400 
1286.256	0.1265	0.1836	1.0830	7.1466	1.8237	3.2629	16.1300 
1286.280	0.1338	0.1865	1.0947	7.3059	1.8237	3.6310	16.1500 
1286.280	0.2046	0.2729	1.0693	7.5366	1.8567	3.9551	16.1500 
1286.297	0.2417	0.2866	1.0386	7.8333	1.8951	4.2957	16.1400 
1286.315	0.1621	0.1997	1.0522	8.1464	2.0325	4.6362	16.1400 
1286.335	0.0405	0.1470	1.1475	8.4540	2.3456	4.8669	16.1500 
1286.424	-0.1309	0.0991	1.5317	8.8055	2.9059	4.9988	16.1500 
1286.449	-0.0547	0.3525	1.3740	9.2999	3.3069	4.9768	16.1600 
1286.450	-0.0356	0.2227	0.9521	9.9371	3.3124	5.2295	16.1400 
1286.450	-0.0723	0.0952	0.7236	10.3436	3.3124	5.3888	16.1500 
1286.450	-0.2236	0.1313	0.9604	10.4755	3.9441	5.0647	16.1400 
1286.466	-0.3242	-0.0283	1.1416	10.4315	4.5264	4.8505	16.1600 
1286.496	-0.2969	-0.0054	1.2832	10.2063	4.8395	4.6143	16.1600 
1286.512	-0.1499	0.2773	1.2534	10.0800	4.8010	4.5703	16.1600 
1286.530	-0.0933	0.2178	1.1079	10.0635	4.3835	5.0537	16.1600 
1286.646	-0.0552	0.1025	0.9971	9.9426	4.0485	5.7184	16.1700 
1286.664	-0.0396	0.1313	0.8989	9.7504	3.8947	6.1688	16.1700 
1286.665	-0.0103	0.1758	0.7939	9.6021	3.7628	6.4874	16.1700 
1286.665	0.0215	0.1802	0.7515	9.4373	3.5760	6.7731	16.1600 
1286.665	0.0229	0.1675	0.8022	9.2120	3.4003	6.9818	16.1500 
1286.665	0.0078	0.1353	0.7905	8.9484	3.1915	7.0203	16.1500 
1286.665	-0.0171	0.2012	0.8271	8.7396	3.0707	6.8335	16.1600 
1286.680	-0.0254	0.1885	0.8765	8.5254	2.9498	6.6797	16.1600 
1286.696	-0.0308	0.1255	0.8726	8.2782	2.7521	6.5424	16.1700 
1286.793	-0.0034	0.1636	0.8877	8.0804	2.5708	6.2677	16.1600 
1286.812	0.0093	0.2515	0.9023	8.0090	2.4335	5.8942	16.1700 
1286.813	0.0103	0.2832	0.8999	8.0145	2.2742	5.5756	16.1600 
1286.813	-0.0186	0.2808	0.9814	8.0310	2.1094	5.3558	16.1600 
1286.813	-0.0205	0.2778	1.0386	7.9816	1.9391	5.1691	16.1500 
1286.834	0.0063	0.2813	1.0874	7.8992	1.7249	5.0537	16.1500 
1286.854	0.0107	0.2456	1.0825	7.8607	1.4447	5.0647	16.1800 
1286.855	0.0137	0.2480	1.0718	7.8772	1.1426	5.0977	16.1800 
1286.875	0.0122	0.2920	1.0781	7.9596	0.8405	5.0922	16.1600 
1286.895	0.0571	0.3262	1.1309	8.0859	0.4889	5.1691	16.1800 
1286.989	0.1299	0.2974	1.2588	8.1628	0.0824	5.3833	16.1800 
1287.012	0.2085	0.2466	1.2549	8.2013	-0.4175	5.7349	16.1600 
1287.012	0.2119	0.1646	1.1753	8.2452	-0.9229	6.1853	16.1700 
1287.012	0.2368	0.0815	1.1455	8.2343	-1.2799	6.7676	16.1700 
1287.012	0.1763	-0.0645	1.1748	8.0750	-1.4996	7.5861	16.1700 
1287.012	0.1309	-0.1797	1.1113	7.7509	-1.5985	8.1354	16.1700 
1287.033	0.1040	-0.0356	1.2573	7.4597	-1.3733	7.8772	16.1700 
1287.053	0.0215	0.0313	1.2871	7.2839	-1.1206	7.4103	16.1600 
1287.075	0.0171	0.0464	1.1895	7.1301	-0.9613	7.0642	16.1800 
1287.093	0.0698	0.1079	0.9810	7.0862	-0.8734	6.8225	16.1800 
1287.114	0.0845	0.0376	0.8291	7.0807	-0.8569	6.8225	16.1800 
1287.136	0.0938	0.0273	0.7856	7.0367	-0.6976	6.8005	16.1800 
1287.150	0.0981	0.0806	0.8052	7.0093	-0.4120	6.5698	16.1900 
1287.255	0.0801	0.0718	0.8008	7.0148	-0.1538	6.3007	16.1800 
1287.261	0.0786	0.0879	0.8008	7.0587	0.0714	6.0150	16.1800 
1287.261	0.0869	0.1348	0.8599	7.0917	0.3131	5.7568	16.1900 
1287.261	0.1001	0.1147	0.9331	7.0532	0.5109	5.6415	16.2000 
1287.261	0.1318	0.0942	0.9565	6.9379	0.6317	5.6360	16.1900 
1287.291	0.1528	0.1313	0.9790	6.8500	0.7416	5.6085	16.1900 
1287.312	0.1758	0.2080	1.0176	6.8774	0.8459	5.5481	16.1900 
1287.312	0.1714	0.1875	1.0425	6.9434	0.9448	5.5811	16.1900 
1287.333	0.1479	0.1777	1.0513	7.0422	1.0382	5.6360	16.2000 
1287.349	0.1128	0.1641	1.0903	7.1576	1.2140	5.6580	16.1800 
1287.369	0.0933	0.1353	1.0845	7.2894	1.3898	5.6854	16.1900 
1287.479	0.1577	0.2993	1.0732	7.5146	1.5820	5.5920	16.2100 
1287.497	0.2349	0.3423	1.0181	7.8333	1.6589	5.6305	16.2000 
1287.497	0.2329	0.1982	0.9463	8.1024	1.6919	5.8282	16.1900 
1287.497	0.1172	0.1240	0.9829	8.3496	1.9611	5.8392	16.1900 
1287.497	-0.1519	0.1035	1.3438	8.6792	2.5708	5.5536	16.1900 
1287.497	-0.1934	0.2739	1.3755	9.1296	3.0872	5.1086	16.1900 
1287.527	-0.1138	0.2358	1.0918	9.6515	3.1586	5.1251	16.1800 
1287.641	-0.1274	-0.0601	0.9590	9.8602	3.1860	5.2954	16.1900 
1287.663	-0.2344	0.0815	1.0884	9.9371	3.7408	4.5978	16.1800 
1287.663	-0.2388	0.2515	1.1914	10.0250	4.2957	3.8727	16.2000 
1287.663	-0.1943	0.0322	1.2544	9.9921	4.3890	3.7848	16.2100 
1287.663	-0.0942	0.1099	1.1738	9.8822	4.2792	3.7134	16.2000 
1287.663	-0.0186	0.2954	1.0234	9.8767	4.0430	3.6365	16.1900 
1287.663	-0.0088	0.2202	0.9810	9.8492	3.7134	3.8837	16.1800 
1287.688	0.0186	0.1221	0.7861	9.6899	3.3344	4.2133	16.2100 
1287.688	0.0186	0.1821	0.7729	9.4867	3.0981	4.3121	16.1900 
1287.711	0.0093	0.1680	0.7363	9.2615	2.8729	4.3396	16.1900 
1287.729	0.0181	0.1436	0.7183	8.9923	2.6422	4.3176	16.1900 
1287.752	0.0010	0.1792	0.8086	8.7561	2.5049	4.1473	16.1800 
1287.836	0.0034	0.2310	0.8223	8.5693	2.3566	3.9221	16.2000 
1287.844	-0.0015	0.1455	0.9468	8.3057	2.2083	3.7738	16.1800 
1287.844	0.0117	0.1558	0.9521	8.0365	2.0654	3.4991	16.1900 
1287.844	0.0215	0.2974	0.9395	7.8992	2.0050	3.0597	16.1900 
1287.868	0.0259	0.3174	0.9365	7.8607	1.9226	2.7740	16.2000 
1287.868	0.0161	0.2236	0.9570	7.7783	1.8237	2.6752	16.1800 
1287.887	-0.0005	0.2241	1.0259	7.6245	1.8018	2.4719	16.1900 
1287.908	-0.0264	0.2544	1.0938	7.5092	1.8073	2.1423	16.1800 
1287.933	-0.0347	0.2446	1.1274	7.4707	1.7468	1.8292	16.1800 
1287.948	-0.0112	0.2749	1.0688	7.4982	1.5930	1.5491	16.1800 
1288.058	0.0049	0.2852	1.0635	7.5751	1.3953	1.3239	16.1800 
1288.081	0.0488	0.2764	1.1357	7.6630	1.1810	1.1426	16.1800 
1288.081	0.1177	0.2856	1.2959	7.7399	0.9778	0.9668	16.1800 
1288.081	0.1748	0.2129	1.2886	7.8442	0.5933	0.9448	16.1800 
1288.081	0.1777	0.1201	1.1929	7.9541	0.1538	0.9998	16.1900 
1288.081	0.2065	0.1196	1.1450	7.9871	-0.0494	1.0052	16.1900 
1288.106	0.2002	0.0220	1.1182	7.9266	-0.2197	1.1865	16.1900 
1288.131	0.1958	-0.1797	1.0620	7.6520	-0.3131	1.4227	16.1800 
1288.131	0.1357	-0.1504	1.1680	7.3499	-0.2087	1.1646	16.1700 
1288.145	-0.0200	0.0239	1.2734	7.2015	0.1868	0.1593	16.1800 
1288.168	-0.0654	0.0840	1.2124	7.1466	0.5713	-0.8075	16.1800 
1288.290	0.0000	0.1143	1.0317	7.1082	0.7526	-1.3953	16.1900 
1288.325	0.0405	0.0381	0.8828	7.0422	0.8295	-1.6315	16.1800 
1288.325	0.0713	0.0088	0.7808	6.9543	0.9448	-1.7908	16.1800 
1288.325	0.0962	0.0928	0.7813	6.9214	1.2030	-2.0929	16.1800 
1288.325	0.0830	0.0454	0.7939	6.8774	1.4392	-2.3621	16.1800 
1288.325	0.0391	0.0269	0.8032	6.8170	1.6974	-2.7850	16.1600 
1288.325	0.0488	0.1489	0.8057	6.8774	1.9995	-3.3838	16.1800 
1288.346	0.0713	0.1304	0.8979	6.8774	2.2192	-3.6145	16.1800 
1288.346	0.0688	0.0015	0.9512	6.7236	2.3016	-3.5596	16.1700 
1288.365	0.0938	0.1040	0.9478	6.6357	2.4060	-3.7793	16.1800 
1288.382	0.1001	0.2090	0.9814	6.6907	2.5708	-4.1089	16.1800 
1288.402	0.1089	0.2065	1.0112	6.7621	2.6477	-4.1858	16.1800 
1288.505	0.1084	0.1763	1.0264	6.8115	2.6697	-4.0869	16.1900 
1288.511	0.0737	0.1382	1.0898	6.8500	2.7411	-3.9276	16.1800 
1288.511	0.0586	0.1616	1.1162	6.9379	2.8455	-3.8123	16.2000 
1288.512	0.0801	0.2588	1.1050	7.1521	2.9443	-3.6859	16.1900 
1288.512	0.1597	0.3369	1.0454	7.4597	2.9663	-3.4662	16.1800 
1288.541	0.2173	0.2832	1.0244	7.7618	2.9498	-3.0542	16.1800 
1288.556	0.1519	0.1758	1.0229	7.9926	2.9993	-2.6477	16.1900 
1288.667	-0.1167	0.0449	1.3608	8.1958	3.4113	-2.5323	16.1900 
1288.679	-0.1602	0.2290	1.4424	8.4814	3.8947	-2.7521	16.1800 
1288.679	-0.0767	0.3462	1.1055	8.9539	4.0155	-2.6862	16.1900 
1288.679	-0.0977	0.0283	0.8442	9.2285	3.9825	-2.2577	16.1900 
1288.679	-0.2329	0.0107	0.9707	9.2560	4.4055	-2.4554	16.1900 
1288.679	-0.2832	0.1216	1.1396	9.2120	4.9658	-2.8510	16.2000 
1288.703	-0.2778	0.0430	1.2788	9.0912	5.1636	-2.9114	16.2000 
1288.724	-0.1602	0.2119	1.2109	8.9813	5.0867	-2.8455	16.2100 
1288.724	-0.0454	0.2319	1.0796	8.9868	4.8010	-2.4500	16.1800 
1288.743	-0.0186	0.0962	0.9912	8.9154	4.4220	-1.7688	16.1800 
1288.765	-0.0239	0.1045	0.8657	8.7231	4.2242	-1.3458	16.2000 
1288.872	-0.0225	0.2012	0.8296	8.5638	4.1473	-1.2030	16.1800 
1288.899	-0.0083	0.1670	0.7192	8.4210	3.9825	-0.9558	16.1800 
1288.899	-0.0317	0.0801	0.7021	8.1958	3.7903	-0.6866	16.1800 
1288.899	-0.0400	0.2163	0.8027	7.9816	3.7079	-0.6812	16.2000 
1288.899	-0.0454	0.2163	0.8325	7.8278	3.5870	-0.6427	16.1900 
1288.899	-0.0361	0.1514	0.8379	7.6190	3.3948	-0.4999	16.1900 
1288.917	-0.0186	0.1772	0.8853	7.3883	3.2574	-0.4504	16.1800 
1288.940	-0.0161	0.2021	0.9292	7.2235	3.1256	-0.4614	16.1800 
1288.962	-0.0288	0.2314	0.9399	7.0972	2.9883	-0.4944	16.1800 
1288.962	-0.0483	0.2666	0.9995	7.0093	2.8784	-0.4999	16.1900 
1288.983	-0.0366	0.2729	1.0029	6.9269	2.7136	-0.3955	16.2000 
1289.079	-0.0063	0.2305	1.0610	6.8060	2.4939	-0.1703	16.1800 
1289.095	-0.0073	0.2017	1.1191	6.6797	2.2522	0.0494	16.1800 
1289.095	-0.0132	0.2393	1.1460	6.6302	2.0325	0.1373	16.1900 
1289.095	-0.0044	0.2939	1.1211	6.6907	1.7798	0.2032	16.1900 
1289.095	-0.0127	0.2642	1.1064	6.7786	1.5326	0.3680	16.1900 
1289.117	0.0234	0.3413	1.1025	6.9049	1.3184	0.4724	16.2000 
1289.138	0.0854	0.3257	1.1890	7.0697	1.0492	0.7196	16.2100 
1289.158	0.1694	0.2144	1.2378	7.2070	0.6317	1.1810	16.1900 
1289.182	0.1870	0.1289	1.1260	7.3553	0.1593	1.5765	16.2000 
1289.182	0.2349	0.1509	1.1382	7.4542	-0.0439	1.7743	16.1900 
1289.290	0.2373	0.0591	1.1289	7.4487	-0.1758	2.1753	16.1800 
1289.313	0.2056	-0.1963	1.1245	7.2400	-0.2802	2.7191	16.1900 
1289.313	0.1465	-0.1592	1.1025	6.9983	-0.1868	2.6093	16.1700 
1289.313	-0.0034	0.0190	1.3081	6.8994	0.2637	1.8512	16.2000 
1289.313	-0.0371	0.0278	1.3037	6.8665	0.6482	1.1975	16.1900 
1289.313	0.0068	0.0732	1.0850	6.8829	0.8405	0.7196	16.1900 
1289.337	0.0449	0.1006	0.9502	6.9598	0.9668	0.3845	16.2000 
1289.359	0.0830	0.0771	0.7749	7.0697	1.0767	0.1923	16.1900 
1289.381	0.1079	0.1011	0.7676	7.1686	1.2634	-0.0275	16.2000 
1289.381	0.1045	0.1084	0.7607	7.2620	1.4996	-0.3131	16.2000 
1289.401	0.0708	0.0747	0.7852	7.3224	1.7578	-0.6647	16.1900 
1289.507	0.0435	0.1465	0.7993	7.3828	2.0544	-1.2085	16.1900 
1289.535	0.0420	0.1572	0.8931	7.4048	2.3511	-1.6644	16.1800 
1289.535	0.0552	0.0679	0.9028	7.3169	2.5159	-1.8732	16.1800 
1289.535	0.0752	0.1221	0.9624	7.2180	2.7191	-2.1259	16.1800 
1289.535	0.1118	0.1855	0.9819	7.2015	2.8564	-2.3621	16.1900 
1289.535	0.1123	0.1719	1.0093	7.1960	2.9388	-2.5049	16.1900 
1289.559	0.1113	0.2246	1.0601	7.2015	3.0377	-2.6312	16.2100 
1289.578	0.0913	0.1973	1.0908	7.2565	3.1201	-2.6312	16.2000 
1289.578	0.0688	0.1499	1.0928	7.3224	3.1860	-2.5323	16.1900 
1289.599	0.0830	0.2441	1.0918	7.4542	3.2959	-2.5323	16.2100 
1289.620	0.1465	0.3174	1.0483	7.6794	3.3783	-2.4390	16.1900 
1289.731	0.1821	0.2622	1.0259	7.8827	3.3948	-2.1753	16.2000 
1289.746	0.1138	0.2012	1.0654	8.0585	3.5266	-2.0050	16.2000 
1289.746	-0.0273	0.1230	1.2407	8.2288	3.8397	-1.9556	16.2000 
1289.746	-0.1040	0.1919	1.3794	8.4485	4.2572	-2.0764	16.2100 
1289.746	-0.0615	0.3579	1.1841	8.8165	4.4934	-2.3126	16.2100 
1289.746	-0.1035	0.0503	0.9316	9.1626	4.5538	-2.2083	16.2100 
1289.762	-0.2046	-0.0532	0.9185	9.2615	4.8340	-2.4225	16.1900 
1289.783	-0.3042	0.0996	1.2339	9.2450	5.4492	-3.0707	16.2100 
1289.797	-0.3164	0.0518	1.2114	9.1901	5.7513	-3.4552	16.2100 
1289.817	-0.2256	0.1440	1.1626	9.1022	5.8063	-3.5980	16.1900 
1289.833	-0.1377	0.2085	1.1313	9.0802	5.6909	-3.4772	16.2000 
1289.853	-0.0420	0.0757	0.9863	9.0472	5.3119	-2.9498	16.2100 
1289.964	-0.0151	0.0786	0.9106	8.9374	4.9768	-2.4884	16.2000 
1289.979	-0.0068	0.1484	0.8384	8.8550	4.7736	-2.2906	16.2100 
1289.979	-0.0181	0.1675	0.7788	8.7726	4.5923	-2.1039	16.2100 
1289.979	-0.0376	0.1045	0.7427	8.6133	4.4055	-1.9116	16.1900 
1289.979	-0.0405	0.1812	0.7959	8.4979	4.2902	-1.8622	16.2000 
1289.980	-0.0288	0.2393	0.8237	8.4595	4.1364	-1.7908	16.1900 
1289.995	-0.0181	0.1787	0.8623	8.3881	3.9111	-1.5601	16.2000 
1290.015	-0.0088	0.1489	0.8667	8.2727	3.6969	-1.4337	16.1800 
1290.115	-0.0122	0.2358	0.9058	8.2178	3.6035	-1.5381	16.2100 
1290.127	-0.0415	0.2617	0.9063	8.2233	3.5706	-1.6205	16.2000 
1290.127	-0.0830	0.2134	0.9580	8.2233	3.5541	-1.5710	16.2100 
1290.127	-0.0688	0.2715	0.9873	8.2233	3.5266	-1.5820	16.2100 
1290.127	-0.0181	0.3193	1.0288	8.2178	3.3838	-1.5491	16.2000 
1290.152	-0.0068	0.2861	1.0693	8.1958	3.1915	-1.4282	16.2100 
1290.171	-0.0371	0.2446	1.1108	8.1848	3.0322	-1.3074	16.2200 
1290.192	-0.0645	0.2759	1.1206	8.2288	2.9333	-1.2579	16.2000 
1290.207	-0.0864	0.2715	1.1006	8.3221	2.8125	-1.1041	16.2100 
1290.313	-0.0391	0.3345	1.0601	8.4540	2.6257	-0.9119	16.2100 
1290.314	0.0830	0.3442	1.0957	8.6353	2.3071	-0.6042	16.2100 
1290.349	0.1387	0.2402	1.1230	8.8055	1.8512	-0.1428	16.2000 
1290.350	0.0806	0.1494	1.0513	9.0143	1.4502	0.1593	16.2100 
1290.350	0.0986	0.1802	1.1519	9.2340	1.2634	0.2802	16.2100 
1290.350	0.1787	0.0278	1.2324	9.3549	1.0272	0.6976	16.2100 
1290.350	0.2314	-0.0337	1.2349	9.2505	0.7471	1.3623	16.2100 
1290.370	0.2329	0.0166	1.2524	9.0253	0.5768	1.7578	16.2000 
1290.391	0.1489	-0.0625	1.3022	8.7341	0.5219	1.8787	16.2100 
1290.413	-0.0322	0.0439	1.3701	8.4979	0.7526	1.5436	16.2200 
1290.413	-0.0317	0.2275	1.1929	8.4705	1.0272	0.9998	16.2100 
1290.508	0.0166	0.1035	0.8438	8.5474	1.0657	0.8844	16.2100 
1290.528	0.0234	-0.0010	0.6445	8.5529	1.1041	0.9283	16.1900 
1290.528	0.0000	0.0977	0.6689	8.5474	1.4282	0.6537	16.2100 
1290.528	0.0044	0.1421	0.7314	8.5199	1.8567	0.2966	16.2100 
1290.528	0.0459	0.0938	0.8057	8.3771	2.1643	0.1044	16.2100 
1290.547	0.0640	0.1050	0.8428	8.1738	2.3950	-0.0275	16.2100 
1290.578	0.0674	0.0903	0.9365	7.9486	2.5873	-0.0769	16.2100 
1290.578	0.0664	0.0762	0.9893	7.7069	2.7466	-0.0439	16.2100 
1290.591	0.1006	0.1465	1.0332	7.5146	2.8400	-0.0439	16.2100 
1290.609	0.1221	0.1841	0.9907	7.3938	2.8839	-0.0714	16.2200 
1290.631	0.1284	0.2080	1.0332	7.3334	2.9114	-0.0165	16.2200 
1290.724	0.1177	0.2075	1.0381	7.3169	2.9333	0.0989	16.2000 
1290.745	0.0669	0.1401	1.0723	7.3059	2.9828	0.3241	16.2000 
1290.745	0.0435	0.1641	1.0918	7.3279	3.1036	0.5054	16.2100 
1290.745	0.0288	0.2173	1.0942	7.4652	3.2574	0.6592	16.1900 
1290.745	0.0996	0.2637	1.0562	7.6685	3.3453	0.9283	16.2100 
1290.767	0.1694	0.2534	1.0039	7.9156	3.3563	1.3074	16.2200 
1290.789	0.1738	0.2246	0.9570	8.1793	3.4222	1.6205	16.2100 
1290.812	0.0820	0.1680	0.9673	8.4979	3.5870	1.8842	16.2100 
1290.813	-0.1367	0.0527	1.2534	8.8770	3.9221	2.1094	16.2100 
1290.828	-0.1299	0.2427	1.2104	9.3384	4.1748	2.0819	16.2100 
1290.928	-0.0938	0.2661	0.9585	9.8822	4.1473	2.3181	16.2100 
1290.947	-0.1748	-0.0645	1.0225	10.0745	4.2023	2.7576	16.2100 
1290.947	-0.2476	0.1797	1.1440	10.0964	4.6417	2.3511	16.2200 
1290.947	-0.2715	0.2363	1.2144	10.1239	5.0153	2.0764	16.2200 
1290.947	-0.2603	-0.0146	1.2241	10.0250	5.0922	2.2137	16.2100 
1290.947	-0.1704	0.1646	1.2510	9.9042	5.1361	2.2302	16.2100 
1290.968	-0.0781	0.2378	1.1514	9.8877	4.9109	2.5763	16.2100 
1290.985	-0.0513	0.1167	1.0386	9.8163	4.5264	3.2574	16.2100 
1291.005	-0.0117	0.2041	0.8706	9.7394	4.2023	3.8123	16.2200 
1291.025	-0.0059	0.2700	0.8130	9.7064	3.9386	4.2682	16.2000 
1291.134	0.0151	0.2075	0.7388	9.6185	3.6365	4.8065	16.2200 
1291.166	0.0293	0.1621	0.7158	9.4263	3.3508	5.2899	16.2100 
1291.166	0.0107	0.1582	0.7705	9.1846	3.1970	5.4932	16.2200 
1291.166	-0.0054	0.2041	0.7930	8.9539	3.1201	5.4272	16.2200 
1291.166	-0.0132	0.2397	0.9087	8.7231	3.1036	5.2679	16.2200 
1291.166	-0.0020	0.2251	0.8994	8.5034	3.0212	5.1636	16.2100 
1291.186	-0.0146	0.2158	0.8940	8.3167	2.9169	5.0702	16.2200 
1291.187	-0.0151	0.2861	0.8809	8.2013	2.8345	4.8615	16.2200 
1291.206	-0.0103	0.2900	0.9453	8.0804	2.7521	4.7406	16.2100 
1291.230	-0.0210	0.2314	0.9834	7.8827	2.6093	4.7296	16.2100 
1291.245	-0.0337	0.2539	1.0674	7.6740	2.4939	4.6088	16.2100 
1291.275	-0.0356	0.2827	1.1055	7.5366	2.3456	4.4110	16.2100 
1291.305	-0.0317	0.2383	1.0952	7.4377	2.1039	4.3121	16.2200 
1291.405	-0.0342	0.2290	1.0752	7.3828	1.8182	4.2847	16.2200 
1291.406	-0.0137	0.2612	1.2163	7.3718	1.5601	4.3176	16.2200 
1291.427	0.0474	0.2402	1.3862	7.3663	1.2415	4.5538	16.2300 
1291.428	0.1836	0.2402	1.3677	7.3828	0.7581	5.0537	16.2100 
1291.428	0.2148	0.1563	1.2549	7.4432	0.1648	5.7623	16.2000 
1291.428	0.2510	0.0923	1.0391	7.4542	-0.2802	6.5369	16.2100 
1291.428	0.2202	-0.0215	1.0098	7.3444	-0.5054	7.3169	16.2100 
1291.443	0.1772	-0.1777	1.0640	7.0697	-0.4724	7.8168	16.2100 
1291.560	0.1445	-0.1074	1.1475	6.8280	-0.2527	7.7179	16.2100 
1291.581	0.0317	0.0049	1.2271	6.7621	0.1208	7.1521	16.2100 
1291.581	-0.0225	0.0205	1.1792	6.7621	0.4285	6.6138	16.2000 
1291.581	-0.0269	0.0596	1.1328	6.7676	0.7086	6.1743	16.2100 
1291.581	0.0073	0.0190	0.9839	6.7841	0.8844	5.9930	16.2000 
1291.581	0.0361	0.0396	0.8877	6.8555	1.0657	5.8942	16.1800 
1291.601	0.0952	0.1226	0.7959	7.0148	1.2415	5.7788	16.1900 
1291.627	0.0913	0.0688	0.7437	7.1631	1.3733	5.7568	16.2000 
1291.645	0.0610	0.1006	0.7603	7.2510	1.5930	5.5371	16.2000 
1291.645	0.0405	0.1523	0.8354	7.3444	1.9006	5.1691	16.2100 
1291.661	0.0317	0.0815	0.9297	7.3334	2.1368	5.0317	16.2100 
1291.764	0.0493	0.0615	0.9409	7.2345	2.3071	5.0208	16.2000 
1291.778	0.0840	0.1313	0.9688	7.1521	2.4884	4.9493	16.1900 
1291.778	0.1064	0.1709	0.9902	7.1082	2.6093	4.9109	16.2000 
1291.778	0.1270	0.1670	0.9834	7.1082	2.6147	5.0702	16.2000 
1291.779	0.1133	0.1406	0.9727	7.1082	2.5928	5.3503	16.2100 
1291.804	0.0972	0.1929	1.0449	7.1466	2.6367	5.6085	16.2000 
1291.824	0.0957	0.1895	1.0317	7.2290	2.6202	5.9491	16.1900 
1291.825	0.1001	0.2153	1.0376	7.3334	2.6202	6.3007	16.1700 
1291.842	0.1646	0.3428	1.0288	7.4927	2.6422	6.5424	16.1900 
1291.862	0.2466	0.2739	1.0093	7.6630	2.5708	7.0038	16.1900 
1291.966	0.2104	0.1230	0.9971	7.7563	2.5214	7.5696	16.2000 
1291.978	0.0034	0.0796	1.2007	7.9047	2.8015	7.8058	16.1900 
1291.978	-0.1475	0.0703	1.4727	8.1464	3.3014	7.8442	16.2000 
1291.979	-0.0615	0.4082	1.2285	8.5309	3.5870	7.6849	16.1900 
1291.979	-0.0713	0.2524	1.0337	8.9539	3.6859	7.9266	16.2000 
1292.001	-0.2007	-0.0825	0.8647	9.0637	3.9880	8.1409	16.1900 
1292.021	-0.2900	0.0630	1.1021	9.0747	4.7955	7.6685	16.2000 
1292.040	-0.2686	0.1367	1.3413	9.0582	5.3668	7.3773	16.1900 
1292.040	-0.1787	0.1030	1.3716	8.9154	5.4108	7.5696	16.1800 
1292.061	-0.0391	0.2002	1.1909	8.7946	5.1471	7.8442	16.1800 
1292.161	0.0327	0.2544	0.9990	8.7781	4.7736	8.1793	16.1800 
1292.181	0.0400	0.1021	0.8340	8.7177	4.3945	8.6957	16.1800 
1292.181	0.0171	0.0479	0.7344	8.4869	4.1473	8.9868	16.1900 
1292.181	-0.0239	0.1938	0.7275	8.2782	4.0814	8.7561	16.1800 
1292.181	-0.0425	0.1782	0.7031	8.1519	3.9441	8.4869	16.1800 
1292.199	-0.0571	0.0742	0.7090	7.9376	3.7573	8.2837	16.1900 
1292.200	-0.0498	0.1836	0.7866	7.7179	3.6584	7.8662	16.1900 
1292.219	-0.0498	0.1436	0.8950	7.5421	3.5266	7.5751	16.1900 
1292.240	-0.0361	0.0596	0.9248	7.3169	3.3124	7.4707	16.1800 
1292.260	-0.0308	0.1733	0.9458	7.1796	3.2190	7.0697	16.1800 
1292.370	-0.0356	0.2949	0.9517	7.2235	3.1805	6.4709	16.1900 
1292.395	-0.0454	0.2822	0.9941	7.2784	3.1311	6.1414	16.1800 
1292.395	-0.0391	0.2007	0.9839	7.2345	2.9993	6.0535	16.1800 
1292.396	-0.0508	0.2153	1.0547	7.1521	2.9169	5.9381	16.1700 
1292.396	-0.0293	0.2842	1.0923	7.1466	2.8290	5.7404	16.1900 
1292.396	0.0127	0.2705	1.0737	7.2070	2.5928	5.6964	16.1800 
1292.412	0.0254	0.2427	1.0547	7.2894	2.2852	5.7184	16.1800 
1292.437	0.0122	0.2832	1.0708	7.4048	2.0544	5.6085	16.1800 
1292.456	0.0054	0.3242	1.1611	7.5586	1.8622	5.5206	16.1800 
1292.476	0.0347	0.2480	1.3057	7.6465	1.6425	5.6799	16.1900 
1292.579	0.1343	0.2300	1.3311	7.7509	1.3074	5.8832	16.1800 
1292.594	0.1758	0.2212	1.2813	7.9321	0.9338	6.0754	16.1800 
1292.594	0.2427	0.1528	1.1362	8.0640	0.6042	6.3666	16.1900 
1292.594	0.2573	0.0649	1.0371	8.1079	0.3625	6.7072	16.1700 
1292.594	0.2085	-0.0337	1.0244	8.0310	0.3241	6.7511	16.1800 
1292.594	0.1685	-0.0137	1.1538	7.9102	0.5493	6.2512	16.1900 
1292.617	0.0786	-0.0020	1.1616	7.8552	0.7526	5.4327	16.1700 
1292.644	0.0010	0.0229	1.1924	7.8278	1.0492	4.4220	16.1900 
1292.644	-0.0244	0.1011	1.0513	7.8278	1.2964	3.3618	16.1800 
1292.658	0.0049	0.0986	0.9453	7.8278	1.4722	2.4829	16.1800 
1292.679	0.0571	0.0723	0.8052	7.8333	1.5820	1.8127	16.1700 
1292.696	0.0869	0.0938	0.7583	7.8497	1.7084	1.1261	16.1700 
1292.795	0.0952	0.1099	0.7319	7.8992	1.8732	0.3680	16.1700 
1292.813	0.0659	0.1064	0.7720	7.9156	2.1259	-0.4395	16.1700 
1292.813	0.0220	0.0869	0.8804	7.8882	2.4390	-1.2250	16.1700 
1292.813	0.0068	0.0459	0.9238	7.7948	2.6971	-1.9226	16.1800 
1292.813	0.0205	0.1011	0.9683	7.6904	2.9169	-2.6202	16.1700 
1292.834	0.0435	0.1221	0.9517	7.6300	3.0322	-3.1860	16.2000 
1292.855	0.0635	0.1196	0.9624	7.5861	3.0652	-3.6090	16.1600 
1292.855	0.0830	0.1968	0.9824	7.6080	3.0817	-3.9771	16.1800 
1292.878	0.0845	0.2080	1.0225	7.6904	3.0432	-4.1364	16.1800 
1292.894	0.0557	0.1597	1.0640	7.7673	2.9663	-4.1199	16.1700 
1292.992	0.0337	0.2324	1.0801	7.8717	2.9498	-4.1364	16.1800 
1293.014	0.0625	0.3232	1.0488	8.1024	2.9443	-4.0869	16.1800 
1293.014	0.1421	0.3179	1.0015	8.3771	2.8674	-3.7683	16.1900 
1293.014	0.1738	0.2612	0.9658	8.6078	2.7631	-3.3289	16.2000 
1293.014	0.1025	0.2114	1.0913	8.8220	2.7960	-3.0212	16.1800 
1293.030	-0.0513	0.1162	1.3184	9.0253	3.0267	-2.7795	16.1800 
1293.055	-0.1094	0.2734	1.2798	9.2395	3.2684	-2.7686	16.1800 
1293.070	-0.0977	0.3008	1.0781	9.5306	3.3289	-2.7850	16.1800 
1293.094	-0.1313	0.0220	0.9634	9.6130	3.4222	-2.5708	16.1800 
1293.095	-0.1816	-0.0044	1.0679	9.5416	3.7299	-2.6422	16.1800 
1293.196	-0.2480	0.0850	1.2603	9.4757	4.0924	-2.8949	16.1700 
1293.228	-0.1831	0.1689	1.2578	9.4098	4.2133	-2.9663	16.1800 
1293.228	-0.0752	0.2271	1.1265	9.3878	4.0045	-2.7191	16.1800 
1293.228	-0.0239	0.1904	1.0503	9.3658	3.6914	-2.2192	16.1800 
1293.228	0.0044	0.1143	0.9258	9.2560	3.3893	-1.6095	16.1700 
1293.229	-0.0127	0.1025	0.8311	9.1187	3.1531	-1.0931	16.1800 
1293.252	-0.0332	0.1416	0.7500	9.0143	3.0212	-0.7251	16.1700 
1293.276	-0.0273	0.1792	0.7129	8.9429	2.8894	-0.3461	16.1700 
1293.277	-0.0454	0.1719	0.7495	8.8550	2.7576	0.1263	16.1700 
1293.296	-0.0366	0.1631	0.7900	8.7122	2.6202	0.6042	16.1800 
1293.407	-0.0205	0.1904	0.8438	8.5913	2.5049	1.0547	16.1800 
1293.428	0.0132	0.2065	0.8979	8.5089	2.3676	1.5601	16.1800 
1293.428	0.0107	0.1914	0.9209	8.4430	2.2357	2.0654	16.1700 
1293.428	-0.0249	0.2007	0.8936	8.4265	2.1643	2.4225	16.1800 
1293.429	-0.0640	0.2446	0.9390	8.4485	2.2412	2.5873	16.1700 
1293.429	-0.0986	0.2749	1.0317	8.4705	2.3291	2.7631	16.1800 
1293.451	-0.1001	0.2729	1.0654	8.5199	2.2906	3.0542	16.1800 
1293.471	-0.0493	0.3315	1.1338	8.6133	2.1643	3.4167	16.1800 
1293.493	-0.0137	0.3228	1.0854	8.7396	1.8622	3.9221	16.1800 
1293.493	-0.0044	0.3125	1.0156	8.8879	1.5381	4.4055	16.1800 
1293.513	-0.0010	0.3628	1.0273	9.0637	1.3074	4.7736	16.1800 
1293.623	0.0718	0.3281	1.1758	9.2340	1.0437	5.2405	16.1700 
1293.648	0.1406	0.2480	1.2417	9.3549	0.6647	5.8997	16.1600 
1293.648	0.1719	0.1572	1.2183	9.4537	0.2472	6.5643	16.1700 
1293.648	0.2295	0.2124	1.2251	9.4867	-0.0055	7.1246	16.1700 
1293.648	0.3003	0.0449	1.2368	9.3384	-0.2747	8.0310	16.1800 
1293.649	0.2827	-0.1411	1.1963	9.0033	-0.5438	9.0802	16.1800 
1293.673	0.1875	-0.0825	1.1343	8.7286	-0.5548	9.3878	16.1800 
1293.673	0.0483	0.0254	1.3291	8.6023	-0.1758	9.0637	16.1500 
1293.692	-0.0474	0.0996	1.2632	8.5638	0.1593	8.6737	16.1700 
1293.709	-0.0044	0.1763	1.0747	8.5803	0.3461	8.3661	16.1600 
1293.729	0.0728	0.1304	0.8594	8.6188	0.4395	8.2672	16.1500 
1293.827	0.0850	0.0249	0.6704	8.5858	0.5109	8.3661	16.1700 
1293.844	0.0737	0.0625	0.6670	8.5309	0.7855	8.2782	16.1800 
1293.844	0.0508	0.1250	0.7568	8.5089	1.1646	7.9651	16.1800 
1293.844	0.0498	0.1074	0.7847	8.4265	1.4172	7.7783	16.1700 
1293.844	0.0474	0.0669	0.8315	8.2288	1.5875	7.7344	16.1600 
1293.867	0.0698	0.1357	0.9521	8.0145	1.7468	7.6959	16.1800 
1293.888	0.0928	0.1216	1.0122	7.7509	1.7853	7.8058	16.1900 
1293.911	0.1504	0.1479	0.9644	7.4982	1.6919	7.9651	16.1800 
1293.925	0.1802	0.2441	0.9429	7.3553	1.5985	7.9706	16.1800 
1293.952	0.1787	0.1914	0.9688	7.2565	1.5051	8.1628	16.1900 
1293.952	0.1387	0.1040	0.9956	7.1411	1.4117	8.4869	16.1900 
1294.030	0.0776	0.1333	1.0708	7.0862	1.4557	8.6517	16.1900 
1294.044	0.0513	0.1592	1.0952	7.1411	1.5436	8.7616	16.1800 
1294.045	0.0947	0.2461	1.0996	7.3169	1.5985	8.8934	16.2000 
1294.045	0.2124	0.3540	1.0581	7.5861	1.6205	9.0253	16.2000 
1294.068	0.2964	0.3271	1.0732	7.8223	1.6479	9.2725	16.2100 
1294.069	0.1870	0.1055	1.0493	7.9596	1.6754	9.6844	16.1900 
1294.087	-0.1177	0.0337	1.3638	8.0914	2.1368	9.6185	16.1900 
1294.108	-0.0986	0.4219	1.2246	8.4485	2.6587	9.0143	16.1900 
1294.128	-0.1025	0.3833	1.0288	8.9264	2.7850	9.0143	16.1900 
1294.227	-0.2153	-0.2178	0.9023	8.9813	2.9279	9.3604	16.2100 
1294.244	-0.2896	-0.1016	1.0352	8.9594	3.5815	8.7891	16.1900 
1294.245	-0.2881	0.2939	1.2817	9.0582	4.0540	8.3716	16.2000 
1294.245	-0.1719	0.1816	1.2788	9.0637	3.8397	8.8934	16.2100 
1294.245	-0.0024	0.0527	1.1284	8.9044	3.3179	9.7009	16.2200 
1294.266	0.0249	0.1494	1.1313	8.8000	2.9663	10.1678	16.2000 
1294.288	0.0225	0.1724	1.0508	8.7122	2.7301	10.5908	16.2100 
1294.308	0.0117	0.1270	0.9233	8.5693	2.5214	11.0632	16.1900 
1294.308	0.0137	0.1372	0.7993	8.4485	2.3621	11.3983	16.2000 
1294.324	0.0229	0.2100	0.7695	8.3826	2.2083	11.5961	16.2100 
1294.426	0.0186	0.2017	0.7939	8.2617	1.9611	11.9037	16.2100 
1294.445	0.0229	0.1313	0.7544	8.0420	1.6644	12.2607	16.2100 
1294.445	0.0381	0.1836	0.7773	7.8113	1.5161	12.4091	16.2100 
1294.445	0.0327	0.1489	0.8013	7.6025	1.4008	12.5354	16.2100 
1294.445	0.0117	0.1025	0.8901	7.3663	1.3348	12.5354	16.1900 
1294.445	0.0117	0.2227	0.9199	7.2455	1.3239	12.2333	16.2000 
1294.466	0.0039	0.2856	1.0117	7.2070	1.2909	12.0245	16.2100 
1294.489	-0.0015	0.1909	0.9854	7.1027	1.1481	12.0575	16.2100 
1294.506	-0.0098	0.1978	1.0483	6.9543	1.0876	11.9696	16.2100 
1294.528	-0.0127	0.2222	1.1284	6.8829	1.0437	11.8488	16.2000 
1294.638	-0.0181	0.1958	1.1284	6.8774	0.9119	11.8927	16.2100 
1294.662	-0.0063	0.2251	1.1260	6.9159	0.7361	12.0135	16.2100 
1294.662	0.0386	0.3242	1.0303	7.0258	0.5273	12.1783	16.2300 
1294.662	0.0923	0.3521	1.0215	7.1960	0.2637	12.4091	16.2300 
1294.662	0.1704	0.2275	1.1895	7.2894	-0.0494	12.7771	16.2200 
1294.662	0.2231	0.1816	1.2007	7.3389	-0.4175	13.0957	16.2300 
1294.695	0.2847	0.2056	1.1177	7.4762	-0.7526	13.2001	16.2200 
1294.695	0.3345	0.1221	1.2090	7.4927	-0.9283	13.4747	16.2100 
1294.703	0.2549	-0.2251	1.3682	7.2729	-1.0492	14.1284	16.2300 
1294.724	0.1816	-0.2500	1.2661	7.0148	-1.1371	14.3097	16.2100 
1294.744	0.0576	0.0161	1.3555	6.9049	-0.8734	13.5132	16.2100 
1294.827	-0.0239	0.0479	1.3638	6.8884	-0.4724	12.6453	16.2100 
1294.844	0.0195	0.0796	1.1006	6.8994	-0.2637	12.0245	16.2100 
1294.845	0.0894	0.1519	0.9106	7.0093	-0.1154	11.4258	16.2200 
1294.845	0.1465	0.1030	0.6563	7.2235	0.0439	11.0248	16.2100 
1294.845	0.1289	0.0000	0.6050	7.4048	0.2692	10.7721	16.2200 
1294.863	0.0718	0.0596	0.6938	7.5146	0.7635	10.1019	16.2100 
1294.883	0.0527	0.1255	0.7778	7.6740	1.3733	9.1077	16.2100 
1294.904	0.0557	0.0767	0.8545	7.7728	1.8402	8.2947	16.2100 
1294.925	0.0791	0.0854	0.8784	7.7783	2.1698	7.6080	16.2200 
1295.033	0.1167	0.1567	0.9375	7.7563	2.4335	6.9434	16.2100 
1295.060	0.1333	0.1440	0.9600	7.7563	2.5873	6.4050	16.2100 
1295.061	0.1343	0.1309	0.9419	7.7618	2.6532	5.9711	16.2100 
1295.061	0.1167	0.1855	0.9941	7.7948	2.7466	5.4822	16.2100 
1295.061	0.0908	0.2153	1.0532	7.8607	2.8510	5.0372	16.2100 
1295.061	0.0757	0.2041	1.0811	7.9486	2.9004	4.7626	16.2200 
1295.061	0.0586	0.1714	1.0869	8.0475	2.9608	4.6417	16.2100 
1295.081	0.0562	0.2241	1.1357	8.1683	3.0817	4.4934	16.2100 
1295.101	0.1108	0.3218	1.0864	8.3496	3.1641	4.3451	16.2100 
1295.121	0.1841	0.2617	0.9839	8.5474	3.1696	4.4110	16.1900 
1295.142	0.1279	0.1475	0.9780	8.6957	3.2629	4.5099	16.2100 
1295.242	-0.0781	0.0796	1.1372	8.8715	3.6035	4.3451	16.2000 
1295.259	-0.1763	0.1382	1.3545	9.1241	4.0924	4.0320	16.1900 
1295.259	-0.0923	0.3809	1.1753	9.4867	4.2297	3.9386	16.2000 
1295.259	-0.0767	0.1343	0.9824	9.7614	4.1034	4.3451	16.2000 
1295.259	-0.1509	0.0366	0.8838	9.7668	4.3396	4.2902	16.2000 
1295.260	-0.2383	0.2095	1.0894	9.7504	4.9384	3.7958	16.2000 
1295.278	-0.3027	-0.0063	1.2671	9.5911	5.2185	3.6914	16.1900 
1295.299	-0.2471	0.0469	1.3076	9.3384	5.2954	3.5596	16.1900 
1295.317	-0.0894	0.3447	1.2783	9.2450	5.1691	3.5486	16.2100 
1295.337	-0.0088	0.1982	1.0889	9.1791	4.7021	4.1034	16.2000 
1295.357	-0.0083	0.0508	0.9497	8.9703	4.3286	4.6582	16.1800 
1295.429	-0.0220	0.1470	0.8599	8.8165	4.1418	4.7461	16.1900 
1295.444	-0.0283	0.1934	0.7485	8.7836	3.9935	4.7351	16.1900 
1295.444	-0.0391	0.1167	0.7241	8.7231	3.8068	4.8779	16.1800 
1295.444	-0.0464	0.1504	0.7065	8.6188	3.6420	4.8999	16.1800 
1295.460	-0.0361	0.2515	0.7705	8.5364	3.5376	4.8230	16.1700 
1295.479	-0.0190	0.1206	0.8379	8.3881	3.3124	4.9438	16.1700 
1295.500	0.0034	0.0962	0.8423	8.1573	3.0707	4.9658	16.1600 
1295.519	0.0215	0.2500	0.9258	8.0200	2.9663	4.6033	16.1900 
1295.541	0.0088	0.2900	0.9658	7.9816	2.8729	4.2023	16.1800 
1295.638	-0.0249	0.2339	0.9639	7.9431	2.7521	3.9880	16.1700 
1295.657	-0.0508	0.2349	1.0171	7.9156	2.7081	3.8013	16.1600 
1295.657	-0.0786	0.2744	1.1035	7.9431	2.6862	3.5980	16.1800 
1295.657	-0.0801	0.2529	1.1226	8.0090	2.5873	3.4827	16.1700 
1295.657	-0.0400	0.2813	1.0684	8.1189	2.3785	3.4167	16.1700 
1295.657	-0.0371	0.3384	1.0513	8.2892	2.1423	3.3398	16.1600 
1295.676	-0.0059	0.3330	1.0625	8.4705	1.8677	3.3563	16.1500 
1295.697	0.0610	0.2959	1.1948	8.5913	1.5546	3.4827	16.1600 
1295.720	0.1533	0.2446	1.2979	8.7067	1.1481	3.7903	16.1500 
1295.737	0.1841	0.1699	1.2300	8.8879	0.6262	4.1693	16.1700 
1295.831	0.2549	0.1807	1.2354	8.9923	0.2692	4.5428	16.1700 
1295.842	0.2393	0.0688	1.2197	8.9813	0.0220	5.1361	16.1900 
1295.842	0.2080	-0.0688	1.0576	8.7671	-0.1593	5.6470	16.1800 
1295.842	0.1592	0.0034	1.1235	8.5474	-0.0275	5.5481	16.1700 
1295.842	0.0596	0.0083	1.1772	8.3771	0.3241	5.1031	16.1600 
1295.858	-0.0327	0.0444	1.1816	8.2013	0.7361	4.5319	16.1500 
1295.876	-0.0171	0.1353	1.0234	8.1299	1.0107	3.9276	16.1600 
1295.899	0.0151	0.0698	0.9067	8.0914	1.1755	3.6804	16.1800 
1295.916	0.0317	0.0103	0.8242	7.9761	1.3239	3.5760	16.1700 
1295.938	0.0688	0.1167	0.8003	7.9102	1.6205	3.2684	16.1600 
1296.034	0.0732	0.1167	0.7842	7.9321	1.9171	3.0048	16.1700 
1296.041	0.0640	0.0718	0.7642	7.9047	2.1918	2.7686	16.1500 
1296.041	0.0488	0.1270	0.8281	7.8607	2.5873	2.3566	16.1500 
1296.041	0.0410	0.1147	0.9185	7.7618	2.9388	2.0544	16.1700 
1296.041	0.0562	0.0718	0.9302	7.6465	3.1641	1.8896	16.1600 
1296.063	0.0786	0.1650	0.9297	7.6135	3.4003	1.5326	16.1700 
1296.077	0.1089	0.2334	0.9780	7.6575	3.6530	1.1041	16.1500 
1296.095	0.1021	0.2144	1.0298	7.7234	3.8287	0.8844	16.1600 
1296.115	0.0815	0.1836	1.0410	7.7893	3.9606	0.7855	16.1800 
1296.137	0.0322	0.2251	1.0752	7.8992	4.1418	0.6866	16.1800 
1296.233	0.0034	0.2222	1.0864	8.0475	4.3176	0.6757	16.1600 
1296.243	0.0776	0.3247	1.0317	8.2452	4.4495	0.7416	16.1500 
1296.243	0.1807	0.3975	0.9873	8.4869	4.5044	0.9009	16.1500 
1296.243	0.1904	0.2227	0.9722	8.6517	4.5044	1.2744	16.1500 
1296.243	0.0327	0.0557	1.0239	8.7177	4.6912	1.5381	16.1500 
1296.261	-0.2847	0.0854	1.4541	8.8440	5.3064	1.3293	16.1600 
1296.290	-0.2402	0.3628	1.3779	9.1571	5.7623	1.0162	16.1700 
1296.313	-0.1606	0.1641	1.0640	9.5581	5.7294	1.3348	16.1500 
1296.329	-0.1855	-0.1138	0.9009	9.6185	5.7294	1.6479	16.1600 
1296.353	-0.2554	0.1655	1.1294	9.5087	6.2622	1.1591	16.1700 
1296.369	-0.2783	0.1533	1.2295	9.3988	6.6632	0.8789	16.1600 
1296.397	-0.2036	0.0186	1.2124	9.2010	6.6797	0.9338	16.1600 
1296.397	-0.1289	0.1831	1.1807	9.0692	6.5973	0.9174	16.1600 
1296.500	-0.0547	0.2402	1.0054	9.0802	6.3556	1.1096	16.1600 
1296.529	-0.0142	0.1904	0.8867	9.0747	6.0480	1.5326	16.1700 
1296.529	-0.0127	0.1353	0.7793	8.9648	5.8063	1.8842	16.1500 
1296.530	-0.0259	0.1704	0.7295	8.7946	5.6689	1.9720	16.1700 
1296.530	-0.0430	0.1714	0.7671	8.5968	5.5701	1.9171	16.1600 
1296.530	-0.0566	0.1250	0.7402	8.3661	5.4327	1.8622	16.1500 
1296.550	-0.0718	0.1538	0.7837	8.1519	5.3119	1.7084	16.1300 
1296.571	-0.0825	0.1680	0.8662	7.9486	5.2130	1.4941	16.1500 
1296.586	-0.0776	0.1753	0.9624	7.7014	5.1086	1.2469	16.1600 
1296.613	-0.0576	0.2017	0.9492	7.4982	4.9603	0.9448	16.1600 
1296.614	-0.0400	0.2539	0.9170	7.4103	4.8065	0.6152	16.1600 
1296.713	-0.0566	0.2520	0.9507	7.3553	4.7296	0.3406	16.1500 
1296.731	-0.0981	0.2041	1.0503	7.2894	4.6912	0.1648	16.1400 
1296.731	-0.1055	0.2461	1.0576	7.2565	4.6362	-0.0439	16.1300 
1296.731	-0.1094	0.2705	1.0879	7.3004	4.5593	-0.2307	16.1400 
1296.731	-0.1011	0.2632	1.0449	7.3883	4.4055	-0.3241	16.1400 
1296.750	-0.0972	0.2705	1.0396	7.4927	4.2297	-0.3790	16.1300 
1296.750	-0.0977	0.2695	1.0181	7.6025	4.0430	-0.4010	16.1500 
1296.769	-0.0547	0.2944	1.0830	7.7179	3.8287	-0.4175	16.1500 
1296.789	0.0972	0.2515	1.2837	7.7948	3.4827	-0.2032	16.1400 
1296.810	0.1606	0.1592	1.3062	7.8717	2.9443	0.2966	16.1400 
1296.922	0.2344	0.0366	1.2656	7.8717	2.4390	0.8679	16.1400 
1296.947	0.2676	0.0693	1.2886	7.7838	2.1753	1.3733	16.1400 
1296.950	0.1934	-0.0923	1.1855	7.5806	1.9391	1.9226	16.1300 
1296.950	0.1050	-0.1626	1.1460	7.2510	1.9171	2.0599	16.1300 
1296.950	-0.0786	-0.0073	1.2695	7.0148	2.3071	1.4117	16.1300 
1296.950	-0.1152	0.1162	1.2432	6.9379	2.7301	0.7141	16.1300 
1296.967	-0.0381	0.1050	0.9331	6.9324	2.9004	0.4010	16.1200 
1296.989	0.0205	0.0542	0.8218	6.8939	3.0542	0.3571	16.1200 
1297.005	0.0322	-0.0332	0.7500	6.7896	3.2794	0.4010	16.1200 
1297.029	0.0176	0.0303	0.8169	6.7017	3.6420	0.2252	16.1300 
1297.029	0.0239	0.1401	0.8457	6.7456	3.9386	0.0275	16.1300 
1297.129	0.0425	0.1064	0.8105	6.7950	4.0814	0.0385	16.1300 
1297.142	0.0508	0.0713	0.8145	6.7786	4.1968	0.1263	16.1400 
1297.142	0.0361	0.1143	0.9336	6.7072	4.4220	0.1154	16.1300 
1297.143	0.0371	0.1245	0.9712	6.6357	4.5758	0.1538	16.1300 
1297.143	0.0498	0.1182	0.9722	6.5698	4.6362	0.2747	16.1400 
1297.163	0.0898	0.2197	1.0127	6.5533	4.7186	0.3406	16.1100 
1297.185	0.0942	0.2178	1.0298	6.5808	4.7736	0.5383	16.1300 
1297.209	0.0547	0.0933	1.0605	6.5918	4.8175	0.8899	16.1100 
1297.209	0.0112	0.1167	1.0996	6.6193	4.9823	1.0876	16.1300 
1297.229	-0.0288	0.1714	1.1196	6.7566	5.1855	1.2524	16.1300 
1297.328	0.0249	0.2480	1.0747	6.9873	5.3174	1.5051	16.1400 
1297.344	0.1660	0.3423	1.0088	7.2839	5.3723	1.9061	16.1300 
1297.344	0.1865	0.2212	0.9634	7.5476	5.3558	2.5104	16.1400 
1297.344	-0.0049	0.0459	1.0024	7.7563	5.5151	2.9443	16.1400 
1297.344	-0.1978	0.0137	1.1982	8.0310	5.9656	2.9443	16.1400 
1297.367	-0.2432	0.2695	1.2817	8.4705	6.3831	2.8400	16.1400 
1297.386	-0.2061	0.2847	1.1680	9.0143	6.4600	3.1201	16.1400 
1297.386	-0.1968	0.0503	0.9990	9.3823	6.3666	3.6859	16.1200 
1297.407	-0.2051	0.2104	1.0127	9.5966	6.5479	3.7848	16.1200 
1297.430	-0.2295	0.1279	1.1865	9.6954	6.7566	3.9825	16.1200 
1297.524	-0.2422	-0.0488	1.1992	9.6130	6.7291	4.3616	16.1200 
1297.544	-0.1558	0.2056	1.1909	9.5087	6.6852	4.4165	16.1200 
1297.544	-0.1211	0.2344	1.1294	9.5306	6.4764	4.6362	16.1200 
1297.544	-0.0801	0.1538	0.9673	9.5306	6.0535	5.2405	16.1100 
1297.544	-0.0479	0.1313	0.8584	9.4373	5.7074	5.8173	16.1200 
1297.567	-0.0356	0.1680	0.7998	9.3658	5.4108	6.2512	16.1300 
1297.588	0.0122	0.2119	0.7451	9.3054	5.0647	6.6412	16.1300 
1297.588	0.0347	0.2188	0.7236	9.1791	4.6802	6.9598	16.1300 
1297.606	0.0400	0.2109	0.7461	8.9703	4.3231	7.1301	16.1300 
1297.624	0.0293	0.2163	0.7920	8.7286	4.0649	7.1796	16.1400 
1297.723	-0.0088	0.1763	0.8975	8.4485	3.8782	7.2125	16.1300 
1297.745	-0.0425	0.1650	0.9238	8.2178	3.7079	7.1631	16.1400 
1297.746	-0.0483	0.2222	0.9609	8.0640	3.5706	7.0038	16.1200 
1297.746	-0.0381	0.2759	0.9741	7.9980	3.4387	6.9324	16.1200 
1297.746	-0.0342	0.2051	0.9448	7.9651	3.2190	7.0642	16.1200 
1297.746	-0.0322	0.2339	1.0269	7.8992	3.0597	7.1191	16.1300 
1297.764	-0.0078	0.2842	1.1265	7.8387	2.8949	7.1411	16.1200 
1297.783	0.0112	0.2495	1.1196	7.8058	2.6422	7.2949	16.1200 
1297.803	0.0107	0.2417	1.0962	7.8333	2.4115	7.4213	16.1300 
1297.825	-0.0132	0.2720	1.1035	7.9321	2.2577	7.4707	16.1300 
1297.934	-0.0083	0.2778	1.1177	8.0859	2.1204	7.5641	16.1300 
1297.962	0.0371	0.2705	1.2354	8.2562	1.9720	7.7179	16.1200 
1297.962	0.1753	0.2910	1.2593	8.4814	1.6809	7.9321	16.1500 
1297.962	0.1914	0.1938	1.1084	8.7341	1.2634	8.1958	16.1200 
1297.962	0.2222	0.1631	1.0781	8.9099	1.1096	8.2617	16.1200 
1297.963	0.2207	0.0645	1.0820	9.0143	1.0657	8.4155	16.1400 
1297.977	0.1753	-0.1030	1.1230	8.9154	1.0931	8.6902	16.1200 
1297.994	0.1450	0.0093	1.2134	8.7341	1.2909	8.4595	16.1300 
1298.020	0.0449	0.0283	1.2627	8.5803	1.5216	8.0365	16.1400 
1298.035	-0.0239	-0.0200	1.2671	8.3881	1.7578	7.7069	16.1400 
1298.148	-0.0308	0.1133	1.1191	8.2727	2.0380	7.2455	16.1300 
1298.149	0.0161	0.1636	0.9800	8.2837	2.2577	6.8829	16.1300 
1298.158	0.0630	0.0669	0.7271	8.3221	2.4115	6.8005	16.1300 
1298.158	0.0757	0.0610	0.6821	8.3386	2.7081	6.6852	16.1200 
1298.158	0.0371	0.1318	0.7432	8.3551	3.1805	6.3226	16.1300 
1298.158	0.0200	0.1396	0.7944	8.3496	3.6639	5.8942	16.1200 
1298.178	0.0112	0.0815	0.8501	8.2452	4.0430	5.5756	16.1200 
1298.199	0.0093	0.0713	0.8989	8.0859	4.3726	5.3174	16.1300 
1298.220	0.0244	0.0957	1.0000	7.9102	4.6967	5.0867	16.1500 
1298.233	0.0444	0.1050	0.9888	7.7563	4.9109	4.9438	16.1500 
1298.259	0.0659	0.1641	1.0239	7.6849	5.0537	4.8395	16.1400 
1298.260	0.0815	0.2148	1.0337	7.6685	5.1471	4.7736	16.1400 
1298.365	0.0845	0.1704	1.0093	7.6959	5.1691	4.9548	16.1200 
1298.375	0.0430	0.1001	1.0508	7.7124	5.1636	5.3119	16.1400 
1298.376	-0.0190	0.0977	1.1128	7.7454	5.2350	5.6085	16.1200 
1298.376	0.0020	0.2212	1.1089	7.8497	5.3229	5.7568	16.1400 
1298.376	0.0674	0.3364	1.0728	8.0530	5.3174	5.9601	16.1500 
1298.398	0.1343	0.2212	0.9658	8.2507	5.1526	6.3940	16.1500 
1298.419	0.0723	0.1353	0.9873	8.4045	5.1031	6.7181	16.1400 
1298.434	-0.1011	0.1787	1.3076	8.6133	5.3229	6.7126	16.1600 
1298.460	-0.1245	0.3237	1.2393	8.9978	5.3503	6.6632	16.1400 
1298.460	-0.1719	0.1431	1.0566	9.3054	5.1581	6.9543	16.1500 
1298.558	-0.1865	0.0176	0.8984	9.3439	5.1031	7.0038	16.1300 
1298.576	-0.2749	0.1284	1.0894	9.2780	5.4932	6.7072	16.1600 
1298.576	-0.3003	0.0698	1.1294	9.1406	5.7513	6.6742	16.1400 
1298.576	-0.2554	0.0884	1.2295	8.9319	5.8997	6.7676	16.1400 
1298.577	-0.1724	0.2017	1.2085	8.8055	5.8282	7.0422	16.1500 
1298.596	-0.0630	0.1235	1.0586	8.7012	5.5371	7.6959	16.1500 
1298.619	-0.0161	0.1680	1.0088	8.5583	5.2789	8.3331	16.1400 
1298.632	0.0278	0.1982	0.8599	8.4320	5.0153	8.9099	16.1300 
1298.661	0.0220	0.1602	0.8022	8.2837	4.7845	9.4757	16.1400 
1298.661	0.0083	0.2002	0.7617	8.1134	4.6307	9.8163	16.1300 
1298.775	-0.0156	0.2183	0.8086	7.9266	4.5209	10.0470	16.1300 
1298.794	-0.0415	0.1494	0.7979	7.6740	4.3506	10.2612	16.1400 
1298.794	-0.0503	0.1401	0.8579	7.3444	4.2407	10.3821	16.1500 
1298.794	-0.0576	0.1362	0.8936	7.0203	4.1748	10.3931	16.1400 
1298.794	-0.0498	0.1714	0.9395	6.7566	4.1473	10.3436	16.1400 
1298.794	-0.0239	0.2314	0.9438	6.5588	4.0869	10.2557	16.1300 
1298.812	-0.0288	0.1968	0.9570	6.3556	4.0320	10.1843	16.1400 
1298.836	-0.0552	0.1445	1.0210	6.1469	4.0814	10.0909	16.1200 
1298.850	-0.0508	0.2251	1.0410	6.0095	4.1858	9.7723	16.1300 
1298.876	0.0029	0.3086	1.0620	5.9930	4.2023	9.4482	16.1500 
1298.877	0.0127	0.2627	1.0410	6.0095	4.0649	9.3384	16.1500 
1298.980	-0.0532	0.1938	1.0854	6.0205	3.9386	9.2450	16.1400 
1299.015	-0.0840	0.2632	1.1260	6.0919	3.9331	9.0088	16.1400 
1299.015	-0.0610	0.2510	1.2256	6.2073	3.8892	8.9319	16.1400 
1299.015	-0.0269	0.1475	1.4419	6.2567	3.7573	9.2065	16.1400 
1299.015	0.1250	0.1978	1.2520	6.3556	3.3948	9.5526	16.1400 
1299.015	0.1309	0.1567	1.1689	6.5753	3.0048	9.9536	16.1400 
1299.035	0.1426	0.0771	0.9917	6.7621	2.7081	10.4645	16.1300 
1299.035	0.1216	-0.0845	0.9609	6.8115	2.5653	11.0742	16.1400 
1299.060	0.0903	-0.1108	1.1172	6.7126	2.7191	11.2061	16.1500 
1299.077	0.0605	0.0542	1.2095	6.7181	3.0212	10.5853	16.1400 
1299.180	-0.0469	-0.0190	1.1904	6.7950	3.2849	9.9426	16.1500 
1299.214	-0.1030	0.0039	1.2383	6.8115	3.6090	9.2395	16.1500 
1299.214	-0.0640	0.1191	1.1196	6.8280	3.9331	8.5254	16.1400 
1299.214	-0.0073	0.1323	0.9580	6.9104	4.1309	8.1024	16.1400 
1299.215	0.0562	0.0806	0.7686	7.0697	4.1913	7.9486	16.1500 
1299.215	0.0664	0.0947	0.6958	7.2180	4.2572	7.7124	16.1500 
1299.235	0.0425	0.1323	0.7051	7.3224	4.4604	7.1960	16.1400 
1299.235	-0.0176	0.1416	0.7646	7.3663	4.7241	6.5533	16.1400 
1299.255	-0.0410	0.0972	0.8179	7.3004	4.9603	6.0150	16.1200 
1299.275	-0.0356	0.0542	0.8960	7.1521	5.1361	5.5701	16.1500 
1299.392	-0.0098	0.1152	0.9668	7.0203	5.2954	5.1526	16.1200 
1299.412	0.0674	0.1455	0.9873	6.8884	5.3174	4.9054	16.1400 
1299.412	0.0815	0.0986	0.9893	6.7676	5.2570	4.8065	16.1500 
1299.413	0.0840	0.1128	0.9980	6.6852	5.2679	4.6252	16.1500 
1299.413	0.0430	0.1333	1.0752	6.6522	5.4053	4.3890	16.1400 
1299.413	-0.0332	0.0620	1.1577	6.6577	5.5096	4.2957	16.1500 
1299.430	-0.0078	0.1538	1.1606	6.7456	5.5591	4.1528	16.1500 
1299.451	0.1108	0.3408	1.0786	6.9928	5.4987	4.1144	16.1500 
1299.464	0.1611	0.3018	1.0469	7.2565	5.3448	4.3616	16.1400 
1299.494	0.1646	0.2202	0.9692	7.4432	5.2185	4.5813	16.1500 
1299.494	0.0801	0.1968	1.0269	7.6410	5.2789	4.5593	16.1500 
1299.596	-0.1035	0.1201	1.2427	7.8772	5.5481	4.3451	16.1500 
1299.603	-0.1206	0.2275	1.2422	8.2123	5.7898	3.9276	16.1700 
1299.603	-0.1411	0.2778	1.1401	8.6627	5.8942	3.7463	16.1600 
1299.603	-0.1919	-0.0171	0.9482	8.8989	5.8777	3.8397	16.1700 
1299.603	-0.2788	0.0596	0.9209	8.9099	6.3007	3.2190	16.1900 
1299.629	-0.3130	0.2041	1.1104	8.9539	6.8280	2.6532	16.1600 
1299.650	-0.2939	-0.0503	1.1719	8.8770	6.9379	2.6752	16.1700 
1299.666	-0.2100	0.0669	1.2876	8.6627	6.9873	2.5873	16.1700 
1299.697	-0.1147	0.2505	1.2397	8.5803	6.8390	2.5763	16.1700 
1299.698	-0.0581	0.1860	1.0767	8.5748	6.4819	2.9608	16.1800 
1299.788	-0.0181	0.1538	0.8970	8.5089	6.1743	3.3673	16.1800 
1299.810	-0.0181	0.1885	0.8086	8.4155	5.9766	3.5321	16.1900 
1299.811	-0.0371	0.1953	0.7480	8.3002	5.8447	3.5760	16.1800 
1299.811	-0.0693	0.1011	0.7466	8.0969	5.7074	3.5870	16.1800 
1299.811	-0.0874	0.1729	0.7275	7.8992	5.6085	3.3453	16.1600 
1299.829	-0.0938	0.2427	0.8003	7.7783	5.5151	3.0817	16.1700 
1299.830	-0.0977	0.0903	0.9175	7.5751	5.3174	3.1036	16.1800 
1299.850	-0.0781	0.0835	0.9341	7.2949	5.1306	3.0432	16.2000 
1299.870	-0.0527	0.2573	0.9360	7.1686	5.0262	2.6862	16.1800 
1299.890	-0.0327	0.2778	0.9038	7.1686	4.8779	2.3511	16.1900 
1299.993	-0.0522	0.2119	0.9160	7.1191	4.7461	2.1368	16.1700 
1300.008	-0.0996	0.1875	0.9883	7.0313	4.6857	1.8292	16.1700 
1300.008	-0.1504	0.2158	1.0967	6.9873	4.6527	1.4282	16.1900 
1300.008	-0.1367	0.2378	1.1211	7.0093	4.5264	1.1151	16.1700 
1300.008	-0.0767	0.2427	1.0850	7.1027	4.2297	0.9943	16.1900 
1300.008	-0.0718	0.2441	1.0542	7.2345	3.9221	0.9393	16.2000 
1300.027	-0.0815	0.2827	1.0591	7.3993	3.6969	0.8679	16.1900 
1300.048	-0.0332	0.2974	1.1533	7.5696	3.4882	0.8185	16.1800 
1300.069	0.0332	0.2231	1.3228	7.6740	3.2025	0.9613	16.2000 
1300.089	0.1348	0.2354	1.2695	7.8278	2.7686	1.1151	16.1800 
1300.189	0.1313	0.2051	1.2212	8.0145	2.3840	1.3019	16.2100 
1300.209	0.1782	0.1841	1.0913	8.1134	2.0709	1.5875	16.2100 
1300.209	0.1885	0.0361	1.0757	8.0365	1.8567	2.1423	16.2200 
1300.209	0.2124	-0.1328	1.0508	7.7563	1.7468	2.5269	16.2000 
1300.209	0.1870	0.0210	1.1895	7.5201	1.9720	2.0819	16.1800 
1300.209	0.0620	0.0259	1.2510	7.3993	2.1753	1.4941	16.2100 
1300.229	-0.0117	-0.0103	1.1465	7.2675	2.2961	0.8459	16.2100 
1300.252	-0.0659	0.0991	1.0146	7.2345	2.4994	0.0879	16.2100 
1300.269	-0.0708	0.0830	0.8735	7.2784	2.6312	-0.3406	16.2000 
1300.291	-0.0215	-0.0098	0.7476	7.2290	2.7466	-0.5273	16.2100 
1300.386	0.0400	0.0679	0.7793	7.1576	2.9443	-0.6866	16.1900 
1300.407	0.1113	0.0918	0.8574	7.0752	3.1201	-0.7086	16.1900 
1300.407	0.1055	0.0190	0.8599	6.9489	3.2300	-0.6262	16.2000 
1300.407	0.0571	0.0469	0.9038	6.7896	3.4167	-0.8075	16.1900 
1300.407	0.0361	0.1138	0.9429	6.6467	3.6530	-1.1261	16.2000 
1300.407	0.0435	0.0557	1.0186	6.4819	3.8177	-1.2305	16.1900 
1300.428	0.0669	0.0840	0.9888	6.3666	3.8837	-1.2854	16.1900 
1300.449	0.0913	0.2041	0.9585	6.3666	3.9551	-1.3568	16.1900 
1300.467	0.0947	0.2178	0.9727	6.4270	4.0210	-1.3074	16.1700 
1300.488	0.0732	0.1470	0.9883	6.4655	4.0704	-1.0986	16.1800 
1300.601	0.0317	0.1475	1.0708	6.4764	4.2188	-0.9668	16.1900 
1300.625	-0.0088	0.1816	1.1060	6.5259	4.3890	-0.8624	16.2100 
1300.625	-0.0122	0.1553	1.1030	6.6248	4.5483	-0.5713	16.2000 
1300.625	0.0571	0.2183	1.0376	6.8005	4.6692	-0.2032	16.1900 
1300.625	0.1357	0.2964	0.9951	7.0477	4.7681	0.1703	16.1800 
1300.625	0.1333	0.1938	0.9766	7.2784	4.8395	0.6592	16.2000 
1300.625	0.0132	0.0942	1.0112	7.4707	5.0372	1.0602	16.1800 
1300.646	-0.1953	0.1226	1.2886	7.7783	5.4602	1.2195	16.1800 
1300.665	-0.1919	0.2124	1.3774	8.2343	5.7678	1.5326	16.2100 
1300.690	-0.1201	0.1719	1.0791	8.7781	5.6525	2.2083	16.1800 
1300.703	-0.1206	0.0151	0.9741	9.1626	5.5536	2.9553	16.2100 
1300.722	-0.1665	0.1533	1.0615	9.3109	5.8612	3.0048	16.2000 
1300.828	-0.2275	0.1318	1.1313	9.3439	6.2897	2.8784	16.1800 
1300.845	-0.2861	-0.0249	1.2930	9.2120	6.5918	2.7411	16.1700 
1300.845	-0.1899	0.1484	1.2065	9.0472	6.7181	2.3456	16.1900 
1300.845	-0.0879	0.2046	1.0825	8.9539	6.5039	2.0764	16.1700 
1300.845	-0.0361	0.1714	0.9531	8.8165	6.0919	2.0599	16.1700 
1300.865	-0.0303	0.1543	0.9043	8.6627	5.7184	2.2137	16.1700 
1300.865	-0.0327	0.1401	0.7920	8.5529	5.3064	2.3785	16.1900 
1300.884	0.0005	0.2051	0.7612	8.4924	4.9823	2.4280	16.1800 
1300.905	0.0210	0.2148	0.7852	8.4210	4.6692	2.4500	16.1800 
1300.925	0.0288	0.1694	0.7949	8.2562	4.2792	2.4554	16.1800 
1301.034	0.0151	0.1357	0.8325	7.9761	3.9386	2.2083	16.1700 
1301.059	-0.0034	0.1704	0.9023	7.6630	3.7683	1.5930	16.1800 
1301.059	-0.0435	0.2114	0.9702	7.4323	3.6310	0.9229	16.1700 
1301.060	-0.0688	0.1909	0.9458	7.3004	3.4277	0.4724	16.1600 
1301.060	-0.0679	0.2480	0.9282	7.1906	3.2574	0.0769	16.1700 
1301.060	-0.0488	0.2666	0.9722	7.1082	3.0817	-0.1428	16.1600 
1301.080	-0.0220	0.1924	0.8936	6.9543	2.7631	-0.2307	16.1600 
1301.101	-0.0088	0.1938	0.9429	6.7621	2.5378	-0.4285	16.1700 
1301.101	-0.0342	0.1812	1.0469	6.6412	2.3401	-0.6482	16.1600 
1301.124	-0.0752	0.1646	1.0854	6.5918	2.1259	-0.8459	16.1700 
1301.143	-0.0835	0.2007	1.0918	6.5918	1.9116	-1.0437	16.1700 
1301.254	-0.0835	0.2231	1.1074	6.6193	1.7029	-1.1536	16.1700 
1301.279	-0.0386	0.2510	1.1528	6.6632	1.4886	-1.1206	16.1800 
1301.279	0.0195	0.2104	1.2397	6.6742	1.2360	-0.9283	16.1800 
1301.279	0.1489	0.2456	1.2842	6.7072	0.9064	-0.7086	16.1600 
1301.280	0.1821	0.2061	1.2109	6.8170	0.4944	-0.4504	16.1800 
1301.280	0.1909	0.1641	1.1118	6.8884	0.1868	-0.2362	16.1800 
1301.292	0.1851	0.1445	1.0830	6.9049	0.0275	-0.0055	16.1700 
1301.319	0.1802	-0.0820	1.0586	6.7841	-0.0714	0.5054	16.1800 
1301.332	0.1675	-0.1743	1.0981	6.5259	-0.0439	0.9119	16.1700 
1301.358	0.1226	-0.0859	1.2256	6.2952	0.1703	0.8185	16.1600 
1301.464	0.0615	-0.0718	1.2456	6.1853	0.3735	0.5273	16.1900 
1301.499	-0.0171	-0.0020	1.1304	6.1798	0.5328	0.1428	16.1700 
1301.499	-0.0156	0.0723	1.0620	6.2128	0.7086	-0.2142	16.1700 
1301.499	0.0405	0.1230	0.9116	6.2787	0.8569	-0.3131	16.1700 
1301.499	0.0894	0.0352	0.8364	6.2897	0.9613	-0.0165	16.1500 
1301.499	0.1240	-0.0005	0.8022	6.2622	1.1206	0.3021	16.1700 
1301.499	0.0791	0.0591	0.8472	6.3281	1.4722	0.2856	16.1700 
1301.518	0.0498	0.1353	0.8291	6.4929	1.8402	0.0989	16.1500 
1301.538	0.0337	0.0898	0.8965	6.6028	2.1643	0.0494	16.1600 
1301.554	0.0103	0.0132	0.9932	6.5588	2.4390	0.0769	16.1800 
1301.659	0.0303	0.0947	0.9873	6.4764	2.6477	0.0000	16.1700 
1301.674	0.0869	0.1631	0.9858	6.4874	2.7850	0.0879	16.1700 
1301.674	0.1167	0.1377	0.9380	6.4984	2.8125	0.4559	16.1800 
1301.674	0.1045	0.1484	0.9897	6.4819	2.9333	0.8624	16.1700 
1301.674	0.0859	0.1953	1.0029	6.5039	3.0981	1.1755	16.1700 
1301.674	0.0723	0.1807	0.9458	6.5479	3.2465	1.5656	16.1600 
1301.699	0.0684	0.1440	0.9438	6.5698	3.3783	2.1094	16.1600 
1301.699	0.0635	0.1279	0.9727	6.5863	3.5376	2.7411	16.1500 
1301.717	0.0591	0.1216	1.0239	6.5863	3.7244	3.4113	16.1500 
1301.736	0.0850	0.2012	1.0098	6.6742	3.8727	4.0045	16.1700 
1301.757	0.1255	0.2524	1.0210	6.8555	3.9935	4.6747	16.1900 
1301.866	0.1421	0.2173	0.9966	7.0203	4.0759	5.4437	16.1700 
1301.891	0.0859	0.1514	1.0088	7.1246	4.2572	6.1084	16.1800 
1301.891	-0.0430	0.0688	1.1265	7.2180	4.6527	6.5973	16.2000 
1301.891	-0.1665	0.1099	1.4595	7.3883	5.1581	6.8939	16.1600 
1301.891	-0.0879	0.3457	1.4658	7.6740	5.4327	7.0642	16.1800 
1301.891	-0.0244	0.2686	1.3179	7.9761	5.3943	7.5751	16.1800 
1301.905	-0.0376	0.1328	0.9897	8.0475	5.3119	7.9376	16.1800 
1301.924	-0.2485	0.0601	0.8975	7.9376	5.8337	7.5861	16.1700 
1301.942	-0.4082	-0.0645	0.9790	7.7509	6.5808	7.1027	16.2000 
1301.962	-0.4937	-0.2344	1.1997	7.4927	7.1466	6.7621	16.1900 
1302.065	-0.3145	-0.0010	1.1709	7.1906	7.2839	6.5094	16.1900 
1302.093	-0.0991	0.0586	1.0557	6.9653	6.8994	6.8665	16.1800 
1302.093	-0.0469	-0.0562	0.9561	6.6907	6.3556	7.4872	16.2000 
1302.093	-0.0239	0.0781	0.9438	6.4325	6.0645	7.7563	16.1900 
1302.093	-0.0527	0.0737	0.9990	6.2457	5.8997	8.0255	16.2000 
1302.093	-0.0806	0.0010	0.9414	6.0645	5.7239	8.2617	16.1900 
1302.117	-0.0703	0.1069	0.9189	5.9271	5.6195	8.2397	16.1900 
1302.117	-0.0610	0.0874	0.9526	5.8337	5.4932	8.2562	16.1700 
1302.135	-0.0718	0.0015	0.9634	5.6470	5.3613	8.2782	16.1700 
1302.158	-0.1113	0.0757	0.9976	5.4437	5.3448	7.9761	16.1800 
1302.178	-0.1177	0.0654	0.9966	5.3009	5.3394	7.6794	16.1900 
1302.289	-0.0957	-0.0063	0.9697	5.1691	5.3174	7.4213	16.1700 
1302.309	-0.0933	0.0317	0.9600	5.0867	5.3284	6.9873	16.1800 
1302.309	-0.1309	0.0557	0.9946	5.0702	5.3394	6.3940	16.2000 
1302.309	-0.1631	0.0151	0.9917	5.0812	5.3064	5.7294	16.1900 
1302.309	-0.1704	0.0425	0.9814	5.1416	5.2789	4.9658	16.1700 
1302.309	-0.1460	0.0830	0.9932	5.2679	5.2295	4.2517	16.1900 
1302.330	-0.1196	0.0376	1.0786	5.4108	5.1361	3.7354	16.1800 
1302.351	-0.1094	0.0405	1.1572	5.5481	5.0537	3.2794	16.1800 
1302.375	-0.0381	0.1763	1.1938	5.7349	4.9438	2.9114	16.1800 
1302.375	0.0142	0.1470	1.0840	5.9491	4.6582	2.8235	16.1800 
1302.395	0.0430	0.0547	0.9458	6.0315	4.3011	2.9004	16.1900 
1302.495	0.0400	0.1016	0.9409	6.0535	4.0814	2.8125	16.1900 
1302.512	0.0322	0.0962	0.9443	6.0864	3.9221	2.6807	16.1700 
1302.512	0.0410	0.0820	0.9419	6.0919	3.7683	2.5818	16.1800 
1302.512	0.0542	0.0825	1.0415	6.0699	3.6694	2.4664	16.1700 
1302.512	0.0425	0.0444	1.1011	6.0260	3.5815	2.3950	16.1700 
1302.526	0.0283	0.0801	1.1045	5.9436	3.5211	2.2797	16.1800 
1302.544	0.0508	0.1304	1.0708	5.8722	3.4827	2.1313	16.1700 
1302.562	0.0723	0.0693	1.0210	5.7788	3.4113	2.1973	16.1900 
1302.576	0.0698	0.0571	0.9888	5.6415	3.3563	2.2961	16.2000 
1302.590	0.0620	0.0942	1.0034	5.5151	3.3783	2.2577	16.1900 
1302.610	0.0596	0.0742	1.0156	5.3833	3.3838	2.2687	16.2000 
1302.735	0.0420	0.0469	1.0195	5.2130	3.3783	2.2797	16.1900 
1302.770	0.0112	0.0542	1.0400	5.0372	3.4277	2.1643	16.1800 
1302.771	0.0225	0.0938	1.0635	4.8944	3.4882	1.9940	16.2000 
1302.771	0.0518	0.0864	1.0322	4.8010	3.4717	1.9556	16.1800 
1302.771	0.0532	0.0859	1.0444	4.7241	3.4442	1.9720	16.2100 
1302.771	0.0518	0.0996	1.0415	4.6582	3.4113	1.9885	16.2100 
1302.771	0.0376	0.0918	1.0376	4.5923	3.3728	2.0105	16.2000 
1302.786	0.0078	0.0620	1.0313	4.5154	3.3508	2.0160	16.2100 
1302.900	0.0117	0.0947	1.0420	4.4550	3.3563	1.9720	16.2100 
1302.900	0.0298	0.0864	1.0474	4.4110	3.3179	2.0435	16.2000 
1302.923	0.0342	0.0615	1.0327	4.3616	3.2465	2.1808	16.2100 
1302.923	0.0376	0.0923	1.0317	4.3286	3.1915	2.2522	16.2000 
1302.923	0.0361	0.1006	1.0347	4.3231	3.1476	2.3181	16.1900 
1302.923	0.0298	0.0757	1.0313	4.3231	3.0981	2.4060	16.2100 
1302.923	0.0254	0.0967	1.0176	4.3341	3.0707	2.4445	16.2100 
1302.937	0.0278	0.1108	1.0371	4.3616	3.0652	2.4829	16.2200 
1302.955	0.0254	0.0840	1.0376	4.3781	3.0322	2.5598	16.2300 
1302.972	0.0298	0.1274	1.0361	4.4055	3.0103	2.5818	16.2300 
1302.994	0.0234	0.1182	1.0366	4.4440	2.9773	2.6367	16.2100 
1303.008	0.0229	0.1089	1.0313	4.4824	2.9388	2.7301	16.2400 
1303.100	0.0283	0.1357	1.0327	4.5319	2.9114	2.8015	16.2300 
1303.120	0.0269	0.1235	1.0083	4.5868	2.8729	2.9004	16.2200 
1303.120	0.0210	0.1235	1.0161	4.6252	2.8619	2.9883	16.2200 
1303.120	0.0156	0.1230	1.0386	4.6582	2.8674	3.0817	16.2400 
1303.120	0.0166	0.1167	1.0278	4.6857	2.8510	3.2080	16.2400 
1303.146	0.0327	0.1460	1.0317	4.7131	2.8345	3.3344	16.2200 
1303.160	0.0425	0.1372	1.0156	4.7461	2.8015	3.4937	16.2200 
1303.178	0.0376	0.1196	1.0210	4.7626	2.7795	3.6475	16.2300 
1303.192	0.0337	0.1479	1.0288	4.7955	2.7905	3.7189	16.2400 
1303.208	0.0205	0.1230	1.0327	4.8340	2.7960	3.8068	16.2400 
1303.309	0.0200	0.1265	1.0381	4.8560	2.7905	3.9001	16.2500 
1303.326	0.0410	0.1650	1.0171	4.8889	2.7686	3.9661	16.2400 
1303.327	0.0439	0.1338	1.0200	4.9274	2.7301	4.0869	16.2500 
1303.327	0.0366	0.1445	1.0239	4.9384	2.7191	4.1583	16.2400 
1303.327	0.0220	0.1606	1.0303	4.9658	2.7356	4.1638	16.2400 
1303.343	0.0122	0.1270	1.0220	4.9878	2.7411	4.2133	16.2500 
1303.368	0.0156	0.1401	1.0244	4.9933	2.7411	4.2572	16.2300 
1303.369	0.0234	0.1362	1.0298	5.0098	2.7301	4.3231	16.2400 
1303.388	0.0278	0.1299	1.0239	5.0153	2.7026	4.4000	16.2600 
1303.408	0.0259	0.1440	1.0239	5.0372	2.6807	4.4440	16.2600 
1303.427	0.0244	0.1484	1.0200	5.0647	2.6532	4.4989	16.2500 
1303.507	0.0264	0.1304	1.0078	5.0812	2.6202	4.5868	16.2400 
1303.527	0.0225	0.1313	1.0337	5.0867	2.6093	4.6472	16.2400 
1303.528	0.0249	0.1416	1.0352	5.1031	2.5928	4.6912	16.2600 
1303.528	0.0283	0.1382	1.0176	5.1141	2.5708	4.7571	16.2600 
1303.528	0.0347	0.1450	1.0156	5.1196	2.5543	4.8175	16.2500 
1303.547	0.0356	0.1392	1.0317	5.1086	2.5433	4.8999	16.2700 
1303.567	0.0381	0.1416	1.0337	5.0922	2.5378	4.9713	16.2800 
1303.588	0.0405	0.1548	1.0210	5.0812	2.5269	5.0372	16.2600 
1303.606	0.0356	0.1392	1.0088	5.0702	2.5104	5.1416	16.2700 
1303.715	0.0205	0.1255	1.0269	5.0427	2.5049	5.2405	16.2600 
1303.744	0.0195	0.1265	1.0283	5.0208	2.4939	5.3229	16.2700 
1303.744	0.0371	0.1421	1.0225	5.0043	2.4664	5.4108	16.2900 
1303.744	0.0425	0.1348	1.0254	4.9933	2.4225	5.5261	16.2800 
1303.744	0.0425	0.1270	1.0259	4.9713	2.3785	5.6195	16.2900 
1303.744	0.0400	0.1318	1.0313	4.9548	2.3511	5.6744	16.2900 
1303.757	0.0391	0.1313	1.0332	4.9438	2.3236	5.7129	16.2900 
1303.776	0.0400	0.1250	1.0356	4.9384	2.2961	5.7568	16.3000 
1303.792	0.0376	0.1235	1.0215	4.9438	2.2687	5.8008	16.2900 
1303.811	0.0410	0.1392	1.0303	4.9548	2.2467	5.8228	16.3100 
1303.828	0.0430	0.1250	1.0347	4.9713	2.2192	5.8832	16.3100 
1303.935	0.0400	0.1089	1.0181	4.9713	2.1918	5.9436	16.2900 
1303.962	0.0376	0.1343	1.0278	4.9768	2.1863	5.9436	16.3100 
1303.962	0.0347	0.1265	1.0361	5.0098	2.1698	5.9546	16.3200 
1303.962	0.0449	0.1255	1.0215	5.0372	2.1368	5.9821	16.3100 
1303.962	0.0459	0.1206	1.0249	5.0647	2.1039	6.0205	16.3200 
1303.963	0.0415	0.1167	1.0298	5.0922	2.0819	6.0425	16.3100 
1303.982	0.0464	0.1401	1.0327	5.1361	2.0764	6.0260	16.3000 
1304.091	0.0522	0.1382	1.0278	5.1965	2.0544	6.0315	16.3200 
1304.121	0.0459	0.1172	1.0293	5.2460	2.0380	6.0535	16.3200 
1304.121	0.0391	0.1426	1.0347	5.2899	2.0435	6.0260	16.3300 
1304.121	0.0405	0.1411	1.0190	5.3394	2.0490	6.0095	16.3200 
1304.121	0.0435	0.1250	1.0190	5.3668	2.0435	6.0425	16.3300 
1304.121	0.0459	0.1367	1.0215	5.3833	2.0490	6.0590	16.3300 
1304.121	0.0503	0.1289	1.0239	5.3998	2.0490	6.0809	16.3300 
1304.122	0.0503	0.1304	1.0273	5.4108	2.0435	6.1084	16.3300 
1304.141	0.0386	0.1304	1.0327	5.4218	2.0490	6.1029	16.3400 
1304.160	0.0381	0.1294	1.0239	5.4382	2.0544	6.0919	16.3600 
1304.181	0.0352	0.1313	1.0215	5.4547	2.0654	6.0974	16.3400 
1304.203	0.0356	0.1382	1.0151	5.4712	2.0709	6.0974	16.3400 
1304.301	0.0410	0.1479	1.0215	5.4822	2.0764	6.1139	16.3500 
1304.327	0.0386	0.1362	1.0215	5.4877	2.0599	6.1633	16.3400 
1304.327	0.0366	0.1235	1.0186	5.4767	2.0490	6.2128	16.3400 
1304.327	0.0347	0.1299	1.0298	5.4547	2.0490	6.2347	16.3600 
1304.327	0.0288	0.1255	1.0288	5.4437	2.0490	6.2457	16.3500 
1304.327	0.0327	0.1265	1.0332	5.4272	2.0380	6.2732	16.3500 
1304.343	0.0415	0.1362	1.0298	5.4382	2.0215	6.3007	16.3400 
1304.362	0.0483	0.1348	1.0186	5.4547	1.9940	6.3446	16.3500 
1304.381	0.0439	0.1362	1.0195	5.4602	1.9775	6.3666	16.3600 
1304.403	0.0352	0.1401	1.0410	5.4602	1.9830	6.3721	16.3500 
1304.516	0.0396	0.1245	1.0259	5.4327	1.9720	6.4105	16.3500 
1304.523	0.0454	0.1333	1.0166	5.4053	1.9720	6.4380	16.3600 
1304.523	0.0483	0.1377	1.0244	5.3833	1.9666	6.4655	16.3600 
1304.524	0.0410	0.1118	1.0200	5.3668	1.9501	6.5149	16.3600 
1304.524	0.0420	0.1323	1.0225	5.3448	1.9556	6.5149	16.3600 
1304.524	0.0420	0.1333	1.0298	5.3284	1.9556	6.5314	16.3600 
1304.540	0.0430	0.1226	1.0317	5.3064	1.9446	6.5698	16.3600 
1304.560	0.0386	0.1255	1.0386	5.2954	1.9501	6.5918	16.3600 
1304.580	0.0371	0.1274	1.0254	5.2844	1.9501	6.6083	16.3600 
1304.599	0.0366	0.1245	1.0190	5.2789	1.9501	6.6248	16.3800 
1304.620	0.0371	0.1216	1.0337	5.2789	1.9501	6.6302	16.3700 
1304.715	0.0327	0.1221	1.0273	5.2844	1.9501	6.6302	16.3700 
1304.722	0.0381	0.1416	1.0234	5.2844	1.9611	6.6138	16.3700 
1304.722	0.0347	0.1157	1.0283	5.2789	1.9666	6.6248	16.3600 
1304.722	0.0376	0.1274	1.0332	5.2789	1.9775	6.6193	16.3800 
1304.722	0.0371	0.1260	1.0327	5.2844	1.9775	6.6193	16.3700 
1304.740	0.0332	0.1055	1.0273	5.2844	1.9666	6.6412	16.3800 
1304.760	0.0356	0.1289	1.0298	5.2954	1.9720	6.6302	16.3800 
1304.779	0.0352	0.1182	1.0288	5.3174	1.9666	6.6467	16.3700